File: lasermedia/data/002-ems.txt
# Optical emission spectrum of Ce:GdLiF4 (Ce:GdLiF4)
# assuming unity concentration per meter.  This data was part of the NASA
# Laser Spectra Database found on the web until December of 2005 which
# was created by Pat Cross working at NASA Langley Research Center, Internal
# Operations Group, Aerospace Electronics Systems Division, Remote Sensing.
#
# The spectra was collected by GA on 15 August 1994 and was
# annotated on  6 April 1995.  The sample name was "" was a 9.990
# long piece of :.
# The incident light was unpolarized.
#
# Spectra were recorded from 260nm to 499.2nm
# every 0.1nm at room temperature.  The
# excitation wavelength was unknown.
#
# SLIT WIDTH IS 1500 MICRONS, SAMPLE SHAPE IS CYLINDRICAL, C-AXIS PERP. TO LONG CYLINDER AXIS, PUMP IS ALONG A(=B AXIS & LONG AXIS) OF CRYSTAL. POLARIZER IS PLACED AFTER SAMPLE PARALLEL TO THE C-AX (Pi-POL). INTENSITY MISSING FOR 9 DATA POINTS. INSERTED 0.0 FOR ALL POINTS. FORMAT(1X,G15.8).
#
##Wavelength (nm)	Absorbance (/meter)
260	0.0012846
260.2	0.00054219
260.4	0.00094486
260.6	0.00091452
260.8	0.00074826
261	0.00077582
261.2	0.00076083
261.4	0.00079737
261.6	0.00084989
261.8	0.0008819
262	0.0013005
262.2	0.00052341
262.4	0.00055237
262.6	0
262.8	0.0004969
263	0.0019271
263.2	0.00182
263.4	0.0013678
263.6	0.0021323
263.8	0.0014482
264	0.00086997
264.2	0.0016565
264.4	0.00092111
264.6	0.0011096
264.8	0.00077097
265	0.0010048
265.2	0.0018431
265.4	0.001389
265.6	0.00086673
265.8	0.0018687
266	0.0016504
266.2	0.0014581
266.4	0.0010561
266.6	0.0011347
266.8	0.0013436
267	0.0014436
267.2	0.0013805
267.4	0.0015598
267.6	0.00081193
267.8	0.0014466
268	0.0011938
268.2	0.0011387
268.4	0.001533
268.6	0.0011229
268.8	0.0011816
269	0.0011461
269.2	0.00090016
269.4	0.0013035
269.6	0.0015767
269.8	0.00081808
270	0.0017294
270.2	0.00099794
270.4	0.00061326
270.6	0.00026003
270.8	0
271	0.0002646
271.2	0.00014342
271.4	0
271.6	0.0014133
271.8	0
272	0
272.2	0
272.4	0
272.6	0
272.8	0
273	0
273.2	0
273.4	0
273.6	2.2228e-05
273.8	0
274	0
274.2	0
274.4	0
274.6	0
274.8	0
275	0
275.2	0
275.4	0
275.6	0
275.8	0
276	0
276.2	0
276.4	0
276.6	0
276.8	0
277	0
277.2	0
277.4	5.1331e-05
277.6	0
277.8	0
278	0.00063457
278.2	0
278.4	0
278.6	0
278.8	0
279	0
279.2	0
279.4	0
279.6	0.00079565
279.8	0
280	0
280.2	0
280.4	0
280.6	0.00065463
280.8	9.8743e-06
281	0
281.2	0.00078334
281.4	0
281.6	0.00039674
281.8	2.9997e-05
282	3.6105e-05
282.2	0
282.4	0
282.6	0
282.8	0.00026773
283	0
283.2	0
283.4	0
283.6	0
283.8	0
284	0
284.2	0
284.4	0.00065027
284.6	0
284.8	0
285	0
285.2	0
285.4	0.00024204
285.6	0
285.8	0
286	0.00020703
286.2	0
286.4	0
286.6	0
286.8	0
287	0.0002872
287.2	0
287.4	0
287.6	0.00087069
287.8	0
288	0
288.2	0
288.4	0
288.6	0
288.8	0
289	0
289.2	0.00034384
289.4	0
289.6	0
289.8	0
290	0
290.2	0
290.4	0
290.6	0
290.8	0
291	0
291.2	0
291.4	0
291.6	0
291.8	0
292	0
292.2	0
292.4	0
292.6	0
292.8	0.00069093
293	0
293.2	0
293.4	0
293.6	0
293.8	0.00032015
294	0.0003385
294.2	0
294.4	0
294.6	0.00011153
294.8	0
295	0
295.2	2.6652e-05
295.4	0
295.6	0
295.8	0
296	0.00039471
296.2	0
296.4	0
296.6	0
296.8	0.00059538
297	4.6993e-05
297.2	0.00057032
297.4	0
297.6	0
297.8	0.00010105
298	0.00043537
298.2	0.001075
298.4	0.00077995
298.6	0.0010892
298.8	0.0026511
299	0
299.2	0.0014392
299.4	0.0010636
299.6	0.0014378
299.8	0.0017708
300	0.002293
300.2	0.0031701
300.4	0.003906
300.6	0.0034926
300.8	0.0043127
301	0.0050245
301.2	0.0074928
301.4	0.01018
301.6	0.010286
301.8	0.012751
302	0.016204
302.2	0.019015
302.4	0.022058
302.6	0.026203
302.8	0.032508
303	0.037654
303.2	0.043439
303.4	0.050024
303.6	0.05564
303.8	0.064377
304	0.070729
304.2	0.079362
304.4	0.089742
304.6	0.076238
304.8	0.1081
305	0.11186
305.2	0.1209
305.4	0.12911
305.6	0.14941
305.8	0.15066
306	0.1595
306.2	0.1702
306.4	0.18139
306.6	0.1836
306.8	0.19423
307	0.20378
307.2	0.21588
307.4	0.22641
307.6	0.23537
307.8	0.23983
308	0.24134
308.2	0.25133
308.4	0.25037
308.6	0.24529
308.8	0.2489
309	0.2548
309.2	0.2664
309.4	0.28154
309.6	0.30024
309.8	0.3308
310	0.39263
310.2	0.49259
310.4	0.62858
310.6	0.77797
310.8	0.90811
311	0.98231
311.2	0.9882
311.4	0.92338
311.6	0.79832
311.8	0.6499
312	0.52031
312.2	0.42458
312.4	0.35289
312.6	0.31531
312.8	0.29854
313	0.29738
313.2	0.3063
313.4	0.3286
313.6	0.36162
313.8	0.39596
314	0.41468
314.2	0.4179
314.4	0.39938
314.6	0.36972
314.8	0.32816
315	0.29114
315.2	0.25629
315.4	0.22614
315.6	0.2063
315.8	0.18966
316	0.17742
316.2	0.16684
316.4	0.15605
316.6	0.15002
316.8	0.14693
317	0.14325
317.2	0.14105
317.4	0.13886
317.6	0.13899
317.8	0.13924
318	0.13986
318.2	0.14017
318.4	0.1407
318.6	0.14048
318.8	0.14361
319	0.14506
319.2	0.14505
319.4	0.14578
319.6	0.14298
319.8	0.14741
320	0.14648
320.2	0.14691
320.4	0.14718
320.6	0.14707
320.8	0.14806
321	0.15053
321.2	0.15021
321.4	0.153
321.6	0.15253
321.8	0.15204
322	0.15304
322.2	0.15325
322.4	0.15322
322.6	0.15304
322.8	0.15387
323	0.15447
323.2	0.15347
323.4	0.15334
323.6	0.15416
323.8	0.15474
324	0.15234
324.2	0.15303
324.4	0.15127
324.6	0.15145
324.8	0.15304
325	0.15096
325.2	0.15098
325.4	0.14942
325.6	0.14552
325.8	0.14566
326	0.14431
326.2	0.14492
326.4	0.1426
326.6	0.14175
326.8	0.14039
327	0.13895
327.2	0.13684
327.4	0.13979
327.6	0.13694
327.8	0.13492
328	0.13441
328.2	0.13182
328.4	0.13001
328.6	0.12857
328.8	0.12554
329	0.12458
329.2	0.12152
329.4	0.12112
329.6	0.11824
329.8	0.11768
330	0.11692
330.2	0.11489
330.4	0.11126
330.6	0.11118
330.8	0.10869
331	0.10727
331.2	0.10493
331.4	0.10466
331.6	0.10191
331.8	0.098812
332	0.098942
332.2	0.096382
332.4	0.093774
332.6	0.092826
332.8	0.090815
333	0.087928
333.2	0.086522
333.4	0.084859
333.6	0.084377
333.8	0.081937
334	0.080133
334.2	0.080095
334.4	0.078237
334.6	0.076382
334.8	0.074471
335	0.072166
335.2	0.071485
335.4	0.06958
335.6	0.068288
335.8	0.066391
336	0.064956
336.2	0.063979
336.4	0.063095
336.6	0.061353
336.8	0.060683
337	0.058802
337.2	0.057781
337.4	0.056255
337.6	0.055565
337.8	0.054443
338	0.054012
338.2	0.052217
338.4	0.051208
338.6	0.053664
338.8	0.049453
339	0.048697
339.2	0.046844
339.4	0
339.6	0
339.8	0
340	0
340.2	0.042805
340.4	0.043028
340.6	0.041973
340.8	0.041142
341	0.041384
341.2	0.040218
341.4	0.039565
341.6	0.03881
341.8	0.038855
342	0.037724
342.2	0.038045
342.4	0.037407
342.6	0.036761
342.8	0.035673
343	0.035818
343.2	0.035459
343.4	0.034257
343.6	0.034084
343.8	0.033868
344	0.034026
344.2	0.033531
344.4	0.032892
344.6	0.032815
344.8	0.032696
345	0.031734
345.2	0.032218
345.4	0.032332
345.6	0.0314
345.8	0.031703
346	0.0313
346.2	0.031227
346.4	0.03041
346.6	0.030295
346.8	0.030134
347	0.030085
347.2	0.030117
347.4	0.029728
347.6	0.029249
347.8	0.029332
348	0.028881
348.2	0.028731
348.4	0.028376
348.6	0.027973
348.8	0.027749
349	0.027895
349.2	0.0274
349.4	0.027113
349.6	0.027085
349.8	0.026909
350	0.026756
350.2	0.026676
350.4	0.026364
350.6	0.025921
350.8	0.025943
351	0.025593
351.2	0.026145
351.4	0.025889
351.6	0.025092
351.8	0.024979
352	0.024931
352.2	0.02467
352.4	0.024897
352.6	0.024617
352.8	0.023991
353	0.02419
353.2	0.023305
353.4	0.023293
353.6	0.023629
353.8	0.022945
354	0.022766
354.2	0.022728
354.4	0.022008
354.6	0.02225
354.8	0.021795
355	0.021842
355.2	0.021205
355.4	0.021006
355.6	0.020763
355.8	0.020345
356	0.020296
356.2	0.019809
356.4	0.020005
356.6	0.019541
356.8	0.019319
357	0.01935
357.2	0.018874
357.4	0.018906
357.6	0.018342
357.8	0.018128
358	0.018223
358.2	0.01766
358.4	0.017604
358.6	0.017334
358.8	0.016792
359	0.016606
359.2	0.016248
359.4	0.016409
359.6	0.01621
359.8	0.016029
360	0.015446
360.2	0.015156
360.4	0.01512
360.6	0.014838
360.8	0.014324
361	0.014403
361.2	0.014528
361.4	0.014224
361.6	0.013851
361.8	0.014081
362	0.013698
362.2	0.013498
362.4	0.013265
362.6	0.013127
362.8	0.012857
363	0.012626
363.2	0.011969
363.4	0.011855
363.6	0.011871
363.8	0.011971
364	0.01186
364.2	0.011329
364.4	0.011507
364.6	0.011002
364.8	0.011252
365	0.010982
365.2	0.01107
365.4	0.010653
365.6	0.010648
365.8	0.010228
366	0.010327
366.2	0.010202
366.4	0.010203
366.6	0.0099242
366.8	0.0097402
367	0.0091327
367.2	0.0091114
367.4	0.0092068
367.6	0.0094474
367.8	0.00914
368	0.0093021
368.2	0.0091355
368.4	0.0093495
368.6	0.0098708
368.8	0.010026
369	0.010224
369.2	0.010462
369.4	0.010924
369.6	0.011245
369.8	0.011227
370	0.011039
370.2	0.010649
370.4	0.010266
370.6	0.009939
370.8	0.010418
371	0.010045
371.2	0.009848
371.4	0.009763
371.6	0.0093576
371.8	0.0090229
372	0.0088187
372.2	0.0089625
372.4	0.0091828
372.6	0.008957
372.8	0.009097
373	0.0089405
373.2	0.0085393
373.4	0.0086714
373.6	0.0085253
373.8	0.0085625
374	0.0083917
374.2	0.0088905
374.4	0.0092596
374.6	0.010035
374.8	0.011342
375	0.013382
375.2	0.017138
375.4	0.022174
375.6	0.02664
375.8	0.031836
376	0.03578
376.2	0.038797
376.4	0.040007
376.6	0.040269
376.8	0.039448
377	0.038203
377.2	0.066345
377.4	0.13817
377.6	0.096535
377.8	0.035505
378	0.029515
378.2	0.028154
378.4	0.027238
378.6	0.027346
378.8	0.028819
379	0.030403
379.2	0.033038
379.4	0.036499
379.6	0.039454
379.8	0.044709
380	0.050539
380.2	0.058608
380.4	0.066605
380.6	0.075068
380.8	0.080188
381	0.081062
381.2	0.077783
381.4	0.070808
381.6	0.063227
381.8	0.055074
382	0.04719
382.2	0.042168
382.4	0.037802
382.6	0.033948
382.8	0.031813
383	0.029706
383.2	0.029197
383.4	0.029139
383.6	0.030488
383.8	0.030605
384	0.030479
384.2	0.029854
384.4	0.028422
384.6	0.025838
384.8	0.02302
385	0.019374
385.2	0.017245
385.4	0.015405
385.6	0.013151
385.8	0.011668
386	0.010423
386.2	0.0094741
386.4	0.0087666
386.6	0.0078681
386.8	0.0077771
387	0.0071629
387.2	0.0067047
387.4	0.0060973
387.6	0.0056737
387.8	0.0057168
388	0.0058435
388.2	0.0053848
388.4	0.0051821
388.6	0.0049161
388.8	0.0050234
389	0.0046611
389.2	0.0042546
389.4	0.0042295
389.6	0.0039757
389.8	0.003448
390	0.0034746
390.2	0.0033349
390.4	0.0030988
390.6	0.0029164
390.8	0.0028169
391	0.003006
391.2	0.0028168
391.4	0.0025171
391.6	0.0025703
391.8	0.0025058
392	0.0025808
392.2	0.0024524
392.4	0.0024172
392.6	0.0026766
392.8	0.0027469
393	0.0030651
393.2	0.0031042
393.4	0.0030149
393.6	0.0027325
393.8	0.0025872
394	0.0026398
394.2	0.0024265
394.4	0.0023589
394.6	0.0022779
394.8	0.0021885
395	0.0022064
395.2	0.0022627
395.4	0.002055
395.6	0.0020631
395.8	0.0020527
396	0.0021751
396.2	0.0022246
396.4	0.0019509
396.6	0.0019267
396.8	0.001865
397	0.0019007
397.2	0.0018901
397.4	0.0022829
397.6	0.0025751
397.8	0.002888
398	0.0035739
398.2	0.0035587
398.4	0.0041991
398.6	0.0044019
398.8	0.0045634
399	0.0048439
399.2	0.0045054
399.4	0.0040484
399.6	0.0038106
399.8	0.0032808
400	0.0029554
400.2	0.003167
400.4	0.0040628
400.6	0.0058459
400.8	0.007338
401	0.0090006
401.2	0.010475
401.4	0.010466
401.6	0.010191
401.8	0.0095451
402	0.0084206
402.2	0.0067976
402.4	0.0058573
402.6	0.0047378
402.8	0.0036254
403	0.0029761
403.2	0.0027675
403.4	0.0027751
403.6	0.0024886
403.8	0.0027239
404	0.0029372
404.2	0.0031519
404.4	0.0036523
404.6	0.0035626
404.8	0.0037695
405	0.0032812
405.2	0.0029952
405.4	0.0029628
405.6	0.002838
405.8	0.0027888
406	0.0031364
406.2	0.0031619
406.4	0.0031636
406.6	0.0035182
406.8	0.0034458
407	0.0037545
407.2	0.0042964
407.4	0.0047297
407.6	0.0055136
407.8	0.0062927
408	0.0075656
408.2	0.0086594
408.4	0.0095516
408.6	0.010738
408.8	0.011961
409	0.013011
409.2	0.015132
409.4	0.017175
409.6	0.018695
409.8	0.019933
410	0.020612
410.2	0.020308
410.4	0.019852
410.6	0.019631
410.8	0.021187
411	0.025377
411.2	0.032105
411.4	0.038548
411.6	0.043788
411.8	0.047609
412	0.047908
412.2	0.044602
412.4	0.040225
412.6	0.036359
412.8	0.035184
413	0.034746
413.2	0.036819
413.4	0.038758
413.6	0.03811
413.8	0.035156
414	0.032175
414.2	0.026903
414.4	0.023365
414.6	0.021778
414.8	0.021078
415	0.021827
415.2	0.024482
415.4	0.028632
415.6	0.033803
415.8	0.037739
416	0.040411
416.2	0.040743
416.4	0.039945
416.6	0.040358
416.8	0.042261
417	0.044598
417.2	0.048333
417.4	0.050176
417.6	0.049247
417.8	0.04522
418	0.038363
418.2	0.030727
418.4	0.02436
418.6	0.020163
418.8	0.017284
419	0.014438
419.2	0.012987
419.4	0.01134
419.6	0.0097558
419.8	0.0082495
420	0.0074687
420.2	0.0065056
420.4	0.0057643
420.6	0.0052816
420.8	0.0049558
421	0.0049494
421.2	0.0049069
421.4	0.0045833
421.6	0.0043489
421.8	0.0044749
422	0.0043459
422.2	0.0041676
422.4	0.0045221
422.6	0.022854
422.8	0.025542
423	0.01962
423.2	0.0083533
423.4	0.0045398
423.6	0.0050136
423.8	0.005619
424	0.00641
424.2	0.0065024
424.4	0.0071479
424.6	0.0069703
424.8	0.0068216
425	0.0062239
425.2	0.0060855
425.4	0.0050685
425.6	0.0043265
425.8	0.0039435
426	0.0033939
426.2	0.0035065
426.4	0.0034102
426.6	0.0030955
426.8	0.0035626
427	0.0041974
427.2	0.0044289
427.4	0.0058227
427.6	0.006194
427.8	0.0064429
428	0.0061909
428.2	0.006348
428.4	0.005585
428.6	0.0050856
428.8	0.0053372
429	0.0061583
429.2	0.0069966
429.4	0.0083624
429.6	0.0094888
429.8	0.011629
430	0.013723
430.2	0.015517
430.4	0.016517
430.6	0.015974
430.8	0.015118
431	0.013186
431.2	0.011468
431.4	0.010394
431.6	0.01045
431.8	0.011068
432	0.011284
432.2	0.011204
432.4	0.010748
432.6	0.01037
432.8	0.0094508
433	0.0088071
433.2	0.0088553
433.4	0.0097304
433.6	0.011498
433.8	0.013796
434	0.016652
434.2	0.018609
434.4	0.020263
434.6	0.02088
434.8	0.019851
435	0.019226
435.2	0.018496
435.4	0.01762
435.6	0.016479
435.8	0.016151
436	0.01465
436.2	0.012844
436.4	0.011679
436.6	0.010122
436.8	0.0099398
437	0.010909
437.2	0.012889
437.4	0.015709
437.6	0.018419
437.8	0.023482
438	0.026864
438.2	0.02896
438.4	0.028086
438.6	0.02598
438.8	0.022501
439	0.020225
439.2	0.017991
439.4	0.016832
439.6	0.016093
439.8	0.014897
440	0.012729
440.2	0.010728
440.4	0.0081377
440.6	0.0071839
440.8	0.0065597
441	0.0062733
441.2	0.0060836
441.4	0.0059453
441.6	0.0058954
441.8	0.0062275
442	0.0067402
442.2	0.0076511
442.4	0.0087551
442.6	0.0092761
442.8	0.010123
443	0.010477
443.2	0.01051
443.4	0.0098357
443.6	0.0095518
443.8	0.0082317
444	0.007692
444.2	0.006993
444.4	0.0069854
444.6	0.0067735
444.8	0.0065511
445	0.006161
445.2	0.0057665
445.4	0.0053243
445.6	0.0044159
445.8	0.0040139
446	0.0040601
446.2	0.0038963
446.4	0.0037543
446.6	0.003714
446.8	0.0036876
447	0.0038004
447.2	0.0038834
447.4	0.00388
447.6	0.0040694
447.8	0.0039488
448	0.0035394
448.2	0.0036637
448.4	0.0037272
448.6	0.0038888
448.8	0.003888
449	0.0041587
449.2	0.0044392
449.4	0.0046533
449.6	0.0050981
449.8	0.0046524
450	0.0048964
450.2	0.0048918
450.4	0.0048697
450.6	0.0047108
450.8	0.004437
451	0.0046631
451.2	0.0045674
451.4	0.0046477
451.6	0.0047172
451.8	0.0046451
452	0.0045249
452.2	0.00431
452.4	0.0044548
452.6	0.0046493
452.8	0.0044895
453	0.0046485
453.2	0.0048409
453.4	0.0048851
453.6	0.0047848
453.8	0.0053096
454	0.005526
454.2	0.0056696
454.4	0.0060041
454.6	0.006141
454.8	0.0067042
455	0.0074558
455.2	0.0074012
455.4	0.0077024
455.6	0.0079992
455.8	0.0074079
456	0.0067705
456.2	0.006169
456.4	0.0055438
456.6	0.0054869
456.8	0.0049273
457	0.005033
457.2	0.0056198
457.4	0.0057251
457.6	0.0060754
457.8	0.0063848
458	0.006664
458.2	0.0064607
458.4	0.0062231
458.6	0.005978
458.8	0.0057676
459	0.0058255
459.2	0.0051093
459.4	0.0045802
459.6	0.0046547
459.8	0.0046348
460	0.0042248
460.2	0.0042856
460.4	0.0042227
460.6	0.0039525
460.8	0.004002
461	0.0036027
461.2	0.0037937
461.4	0.0040443
461.6	0.0040543
461.8	0.0037629
462	0.0040299
462.2	0.0041079
462.4	0.0042813
462.6	0.0046677
462.8	0.0050483
463	0.0056872
463.2	0.0062158
463.4	0.0073966
463.6	0.008652
463.8	0.0093206
464	0.0094072
464.2	0.0097082
464.4	0.0086455
464.6	0.0079898
464.8	0.0079897
465	0.0072296
465.2	0.0071681
465.4	0.0069543
465.6	0.0068765
465.8	0.0067606
466	0.0066505
466.2	0.0067331
466.4	0.0070134
466.6	0.0073184
466.8	0.0078993
467	0.0085152
467.2	0.0099124
467.4	0.010746
467.6	0.012473
467.8	0.014133
468	0.016145
468.2	0.017092
468.4	0.019428
468.6	0.021182
468.8	0.02372
469	0.02664
469.2	0.029208
469.4	0.030404
469.6	0.030214
469.8	0.026585
470	0.023087
470.2	0.018087
470.4	0.014575
470.6	0.012591
470.8	0.012075
471	0.011998
471.2	0.012797
471.4	0.014339
471.6	0.015373
471.8	0.01626
472	0.016983
472.2	0.017084
472.4	0.016749
472.6	0.016441
472.8	0.016737
473	0.017901
473.2	0.020144
473.4	0.022241
473.6	0.025344
473.8	0.028687
474	0.032253
474.2	0.03694
474.4	0.04059
474.6	0.044775
474.8	0.046878
475	0.04616
475.2	0.04465
475.4	0.0408
475.6	0.036559
475.8	0.033127
476	0.031542
476.2	0.031518
476.4	0.033772
476.6	0.037407
476.8	0.043352
477	0.048473
477.2	0.052477
477.4	0.05597
477.6	0.057501
477.8	0.060062
478	0.063459
478.2	0.064389
478.4	0.064489
478.6	0.060957
478.8	0.05478
479	0.046883
479.2	0.039687
479.4	0.033417
479.6	0.02951
479.8	0.02701
480	0.025834
480.2	0.025889
480.4	0.025499
480.6	0.025511
480.8	0.026245
481	0.026174
481.2	0.026501
481.4	0.02665
481.6	0.026314
481.8	0.026467
482	0.026924
482.2	0.028068
482.4	0.029405
482.6	0.030803
482.8	0.033805
483	0.03642
483.2	0.039843
483.4	0.043338
483.6	0.047245
483.8	0.049994
484	0.054062
484.2	0.055867
484.4	0.058457
484.6	0.062615
484.8	0.065617
485	0.068792
485.2	0.073449
485.4	0.076581
485.6	0.079678
485.8	0.081962
486	0.083514
486.2	0.0848
486.4	0.087287
486.6	0.089734
486.8	0.093548
487	0.097798
487.2	0.10363
487.4	0.10765
487.6	0.10734
487.8	0.10628
488	0.10119
488.2	0.093262
488.4	0.083456
488.6	0.072898
488.8	0.064614
489	0.055282
489.2	0.046269
489.4	0.041672
489.6	0.037132
489.8	0.033024
490	0.029573
490.2	0.0272
490.4	0.024527
490.6	0.022531
490.8	0.020822
491	0.01939
491.2	0.017494
491.4	0.016308
491.6	0.01482
491.8	0.014395
492	0.013212
492.2	0.012544
492.4	0.011925
492.6	0.011082
492.8	0.010604
493	0.010607
493.2	0.0097149
493.4	0.0096987
493.6	0.0094738
493.8	0.0092701
494	0.0089182
494.2	0.0088495
494.4	0.0085055
494.6	0.0082956
494.8	0.0083806
495	0.0079281
495.2	0.0080288
495.4	0.0075476
495.6	0.0075881
495.8	0.0072289
496	0.0071598
496.2	0.0070234
496.4	0.0070442
496.6	0.0070356
496.8	0.0064922
497	0.0065839
497.2	0.0067312
497.4	0.0064287
497.6	0.0064504
497.8	0.0061226
498	0.0060945
498.2	0.005894
498.4	0.0060035
498.6	0.0059616
498.8	0.0060477
499	0.0058813
499.2	0.0058165