File: lasermedia/data/003-ems.txt
# Optical emission spectrum of Ce:GdLiF4 (Ce:GdLiF4)
# assuming unity concentration per meter.  This data was part of the NASA
# Laser Spectra Database found on the web until December of 2005 which
# was created by Pat Cross working at NASA Langley Research Center, Internal
# Operations Group, Aerospace Electronics Systems Division, Remote Sensing.
#
# The spectra was collected by GA on 15 August 1994 and was
# annotated on  4 April 1995.  The sample name was "" was a 9.990
# long piece of :.
# The incident light was unpolarized.
#
# Spectra were recorded from 260nm to 499.2nm
# every 0.1nm at room temperature.  The
# excitation wavelength was unknown.
#
# SLIT WIDTH IS 1500 MICRONS, SAMPLE SHAPE IS CYLINDRICAL, C-AXIS PERP. TO LONG CYLINDER AXIS, PUMP IS ALONG A(=B AXIS & LONG AXIS) OF CRYSTAL. SAMPLE IS PLACED SUCH THAT C-AXIS IS IN THE SAME DIRECTION AS EMISSION (S-POL) DATA MISSING FROM 12 POINTS ON INPUT DATA FILE. SET MISSING DATA POINTS TO ZERO. FORMAT(1X,G15.8).
#
##Wavelength (nm)	Absorbance (/meter)
260	0.0049954
260.2	0.0050398
260.4	0.0043666
260.6	0.0051756
260.8	0.0053264
261	0.0051792
261.2	0.0049101
261.4	0.0055042
261.6	0.0049725
261.8	0.0053196
262	0.0056726
262.2	0.0051834
262.4	0.0053341
262.6	0.0050386
262.8	0.0048007
263	0.0057693
263.2	0.0053625
263.4	0.0059092
263.6	0.006235
263.8	0.0053274
264	0.0057745
264.2	0.0053629
264.4	0.0053732
264.6	0.0054217
264.8	0.0052319
265	0.0060118
265.2	0.0061177
265.4	0.0052321
265.6	0.0049611
265.8	0.005624
266	0.005243
266.2	0.005731
266.4	0.0055902
266.6	0.0055413
266.8	0.0055441
267	0.0053878
267.2	0.0057661
267.4	0.0055819
267.6	0.0055871
267.8	0.0057864
268	0.0060678
268.2	0.0056619
268.4	0.0051407
268.6	0.0054733
268.8	0.0049568
269	0.0052539
269.2	0.0051847
269.4	0.005187
269.6	0.0049831
269.8	0.0038199
270	0.0037821
270.2	0.0032423
270.4	0.0031809
270.6	0.0025832
270.8	0.0020793
271	0.0026628
271.2	0.0021911
271.4	0.0012577
271.6	0.0017883
271.8	0.0011053
272	0.00056689
272.2	0.00065846
272.4	8.8533e-05
272.6	0.00061955
272.8	0.00061532
273	7.5637e-05
273.2	0.00036873
273.4	0.00027079
273.6	0.00036092
273.8	0.00047411
274	0
274.2	0.00053914
274.4	0.00063514
274.6	0.00047633
274.8	0.0013714
275	0.00064682
275.2	0.00040496
275.4	0
275.6	0.000332
275.8	0.0009093
276	0.00058741
276.2	0.00033722
276.4	0.0016505
276.6	0.00072274
276.8	0.00065609
277	0.00080818
277.2	0.00020031
277.4	0.0010603
277.6	0.00095299
277.8	0.00070165
278	0.0012452
278.2	0.00036794
278.4	0.0002476
278.6	0.00040883
278.8	0
279	0.00063657
279.2	0.00087036
279.4	0.00080598
279.6	0.0012009
279.8	0.00031077
280	9.3146e-05
280.2	3.2378e-05
280.4	0.00017782
280.6	0.00071329
280.8	0.00060761
281	0
281.2	0.00068006
281.4	0.00056856
281.6	0
281.8	0
282	0
282.2	0
282.4	0
282.6	0.00026873
282.8	0.00093284
283	0.00042226
283.2	0.00043245
283.4	4.8965e-05
283.6	0
283.8	0.0005489
284	0.00074256
284.2	0.00042354
284.4	0.0013173
284.6	0.00012465
284.8	0.0003937
285	0.00025156
285.2	0
285.4	0.0014605
285.6	0.00056812
285.8	4.0153e-05
286	0.00095719
286.2	0.00041531
286.4	0.00037729
286.6	0.00035283
286.8	0
287	0.0008746
287.2	0.00085776
287.4	0.00046247
287.6	0.0011614
287.8	0.00030996
288	0.00053277
288.2	0.00036902
288.4	0
288.6	0.00078241
288.8	0.00021071
289	0.00029262
289.2	0.001445
289.4	0.00032674
289.6	0
289.8	0
290	0
290.2	0.00096564
290.4	0.00089575
290.6	0
290.8	0.0014531
291	0.0004717
291.2	0
291.4	0.00059001
291.6	0
291.8	0.0017499
292	0.00086697
292.2	0
292.4	0.001398
292.6	0.00035118
292.8	0.00088168
293	0.00089
293.2	0
293.4	0.00052887
293.6	0.0010335
293.8	0.00085686
294	0.00083352
294.2	0
294.4	0.00044003
294.6	0.00078711
294.8	0.00029108
295	0.001701
295.2	0.00048541
295.4	0.00079075
295.6	0.0016782
295.8	0.00031069
296	0.00050772
296.2	0.00042116
296.4	0.00080916
296.6	0.0022283
296.8	0.0012025
297	0.00079944
297.2	0.0015888
297.4	0.00093248
297.6	0.0014442
297.8	0.0014868
298	0.00089324
298.2	0.001931
298.4	0.0020004
298.6	0.0015264
298.8	0.0026382
299	0.0024227
299.2	0.0026754
299.4	0.002983
299.6	0.0032673
299.8	0.0045016
300	0.0043962
300.2	0.0053464
300.4	0.0095502
300.6	0.0081517
300.8	0.0077369
301	0.0086404
301.2	0.01037
301.4	0.012113
301.6	0.01441
301.8	0.017716
302	0.021209
302.2	0.024313
302.4	0.028973
302.6	0.03351
302.8	0.039725
303	0.045666
303.2	0.053155
303.4	0.062405
303.6	0.069219
303.8	0.078217
304	0.087993
304.2	0.097197
304.4	0.10471
304.6	0.11175
304.8	0.11864
305	0.12496
305.2	0.13
305.4	0.13922
305.6	0.14789
305.8	0.15545
306	0.16293
306.2	0.16849
306.4	0.17419
306.6	0.17948
306.8	0.18238
307	0.18852
307.2	0.19684
307.4	0.2043
307.6	0.21614
307.8	0.22243
308	0.22863
308.2	0.22952
308.4	0.22858
308.6	0.22534
308.8	0.2228
309	0.22332
309.2	0.23012
309.4	0.23955
309.6	0.25932
309.8	0.28976
310	0.34238
310.2	0.44095
310.4	0.56652
310.6	0.72263
310.8	0.87437
311	0.97177
311.2	0.99417
311.4	0.94687
311.6	0.82151
311.8	0.66713
312	0.52605
312.2	0.41387
312.4	0.33324
312.6	0.29304
312.8	0.2786
313	0.27448
313.2	0.27975
313.4	0.29673
313.6	0.3296
313.8	0.36042
314	0.38532
314.2	0.39771
314.4	0.39055
314.6	0.36661
314.8	0.33247
315	0.29596
315.2	0.26179
315.4	0.23192
315.6	0.20765
315.8	0.1893
316	0.17496
316.2	0.16439
316.4	0.15756
316.6	0.1529
316.8	0.15052
317	0.1494
317.2	0.15112
317.4	0.15089
317.6	0.15332
317.8	0.15594
318	0.15802
318.2	0.15999
318.4	0.16319
318.6	0.1652
318.8	0.16825
319	0.17005
319.2	0.17164
319.4	0.1724
319.6	0.17505
319.8	0.17781
320	0.17796
320.2	0.17952
320.4	0.18043
320.6	0.18188
320.8	0.18207
321	0.18251
321.2	0.18287
321.4	0.18476
321.6	0.18575
321.8	0.18627
322	0.18592
322.2	0.18537
322.4	0.18375
322.6	0.18328
322.8	0.18437
323	0.18301
323.2	0.18156
323.4	0.18062
323.6	0.17898
323.8	0.17803
324	0.17685
324.2	0.17459
324.4	0.17357
324.6	0.16993
324.8	0.16878
325	0.16707
325.2	0.16546
325.4	0.16122
325.6	0.16107
325.8	0.15952
326	0.15681
326.2	0.15354
326.4	0.1523
326.6	0.15039
326.8	0.14756
327	0.14443
327.2	0.1417
327.4	0.13942
327.6	0.13704
327.8	0.13483
328	0.13115
328.2	0.12909
328.4	0.12647
328.6	0.12345
328.8	0.11983
329	0.11958
329.2	0.11659
329.4	0.11373
329.6	0.11165
329.8	0.10798
330	0.10676
330.2	0.10352
330.4	0.10069
330.6	0.098902
330.8	0.096269
331	0.094625
331.2	0.091578
331.4	0.09013
331.6	0.088303
331.8	0.085965
332	0.083688
332.2	0.08137
332.4	0.080042
332.6	0.077235
332.8	0.076247
333	0.073594
333.2	0.07233
333.4	0.069875
333.6	0.069031
333.8	0.066816
334	0.065233
334.2	0.063906
334.4	0.062421
334.6	0.060927
334.8	0.059679
335	0.058357
335.2	0.056762
335.4	0.05562
335.6	0.054477
335.8	0.053306
336	0.051857
336.2	0.05066
336.4	0.04916
336.6	0.048229
336.8	0.047678
337	0.046744
337.2	0.046069
337.4	0.045267
337.6	0.043992
337.8	0.04329
338	0.042568
338.2	0.042188
338.4	0.041495
338.6	0.040917
338.8	0.040353
339	0.039479
339.2	0.039334
339.4	0.038319
339.6	0.038093
339.8	0.03783
340	0.037877
340.2	0.036763
340.4	0.036687
340.6	0.036739
340.8	0.036741
341	0.036253
341.2	0.036034
341.4	0.035853
341.6	0.0357
341.8	0.035065
342	0.035051
342.2	0.035018
342.4	0.03498
342.6	0.034673
342.8	0.034683
343	0.034807
343.2	0.034612
343.4	0.034543
343.6	0.034192
343.8	0.034389
344	0.034033
344.2	0.034185
344.4	0.033797
344.6	0.034117
344.8	0.034142
345	0.033807
345.2	0.03392
345.4	0.033784
345.6	0.033858
345.8	0.033632
346	0.033545
346.2	0.033425
346.4	0.033653
346.6	0.033121
346.8	0.033094
347	0.033209
347.2	0.033047
347.4	0.032614
347.6	0.032665
347.8	0.032425
348	0.032225
348.2	0.031952
348.4	0.032276
348.6	0.03171
348.8	0.031288
349	0.031039
349.2	0.031071
349.4	0.03064
349.6	0.030452
349.8	0.029681
350	0.029688
350.2	0.029743
350.4	0.029304
350.6	0.029313
350.8	0.028887
351	0.028877
351.2	0.028477
351.4	0.028375
351.6	0.027639
351.8	0.027798
352	0.027648
352.2	0.027142
352.4	0.026987
352.6	0.026654
352.8	0.02613
353	0.025964
353.2	0.025549
353.4	0.025339
353.6	0.0246
353.8	0.024741
354	0.024214
354.2	0.02399
354.4	0.023545
354.6	0.02331
354.8	0.023099
355	0.022698
355.2	0.022532
355.4	0.022082
355.6	0.021806
355.8	0.021526
356	0.021041
356.2	0.020808
356.4	0.02019
356.6	0.019653
356.8	0.019869
357	0.019341
357.2	0.018998
357.4	0.018674
357.6	0.018325
357.8	0.018178
358	0.017675
358.2	0.017705
358.4	0.017564
358.6	0.01727
358.8	0.016775
359	0.016813
359.2	0.016383
359.4	0.015879
359.6	0.015907
359.8	0.015603
360	0.015471
360.2	0.015078
360.4	0.015047
360.6	0.014814
360.8	0.014359
361	0.014234
361.2	0.013994
361.4	0.013622
361.6	0.013388
361.8	0.013046
362	0.012973
362.2	0.012695
362.4	0.012381
362.6	0.012259
362.8	0.01186
363	0.011629
363.2	0.011387
363.4	0.011046
363.6	0.010974
363.8	0.010963
364	0.010592
364.2	0.010379
364.4	0.010173
364.6	0.0099904
364.8	0.0099333
365	0.0098377
365.2	0.0095463
365.4	0.009393
365.6	0.0092196
365.8	0.0090724
366	0.0087568
366.2	0.0085866
366.4	0.0085742
366.6	0.0083877
366.8	0.0081865
367	0.0081445
367.2	0.0079414
367.4	0.0076799
367.6	0.0078585
367.8	0.007707
368	0.0077781
368.2	0.007793
368.4	0.0077312
368.6	0.0077926
368.8	0.0076975
369	0.007644
369.2	0.0075779
369.4	0.0073364
369.6	0.0072895
369.8	0.0069787
370	0.0068588
370.2	0.0068886
370.4	0.0067043
370.6	0.0067477
370.8	0.0068258
371	0.0068794
371.2	0.0069394
371.4	0.0068495
371.6	0.0067767
371.8	0.0067339
372	0.0064729
372.2	0.0064422
372.4	0.0063833
372.6	0.0062256
372.8	0.006371
373	0.0063601
373.2	0.0061685
373.4	0.0061945
373.6	0.0060819
373.8	0.0059431
374	0.0059229
374.2	0.0059532
374.4	0.0060479
374.6	0.0061981
374.8	0.0065947
375	0.0070408
375.2	0.0077643
375.4	0.0088875
375.6	0.010136
375.8	0.011697
376	0.013392
376.2	0.015165
376.4	0.016604
376.6	0.018285
376.8	0.019834
377	0.021148
377.2	0.022359
377.4	0.022807
377.6	0.023086
377.8	0.022845
378	0.022882
378.2	0.022494
378.4	0.022334
378.6	0.021837
378.8	0.02186
379	0.021527
379.2	0.021834
379.4	0.022629
379.6	0.023546
379.8	0.025494
380	0.028281
380.2	0.031391
380.4	0.03469
380.6	0.036822
380.8	0.037894
381	0.036976
381.2	0.034516
381.4	0.031111
381.6	0.027688
381.8	0.024966
382	0.022237
382.2	0.019935
382.4	0.0183
382.6	0.016785
382.8	0.016019
383	0.015701
383.2	0.015581
383.4	0.015685
383.6	0.016367
383.8	0.016613
384	0.016895
384.2	0.01647
384.4	0.015594
384.6	0.014509
384.8	0.012846
385	0.01142
385.2	0.01009
385.4	0.008868
385.6	0.0079487
385.8	0.0070461
386	0.0065549
386.2	0.0060198
386.4	0.0057154
386.6	0.0050839
386.8	0.0048784
387	0.0044697
387.2	0.0042214
387.4	0.0039904
387.6	0.0038505
387.8	0.0037782
388	0.0035622
388.2	0.0034793
388.4	0.0034747
388.6	0.0030842
388.8	0.0031486
389	0.0030656
389.2	0.0029708
389.4	0.0028248
389.6	0.002714
389.8	0.0024641
390	0.0024848
390.2	0.0023453
390.4	0.0022648
390.6	0.0022531
390.8	0.002007
391	0.0020131
391.2	0.0020229
391.4	0.0019988
391.6	0.0020478
391.8	0.001866
392	0.0019165
392.2	0.0019606
392.4	0.001951
392.6	0.0020543
392.8	0.0021227
393	0.0021552
393.2	0.0022823
393.4	0.0021833
393.6	0.0012649
393.8	0.0019182
394	0.0019413
394.2	0.0019165
394.4	0.0018454
394.6	0.0017912
394.8	0.0018952
395	0.0017856
395.2	0.0017857
395.4	0.0017096
395.6	0.0016836
395.8	0.0017958
396	0.0017836
396.2	0.0017019
396.4	0.0018174
396.6	0.0018188
396.8	0.0017093
397	0.0017484
397.2	0.0017203
397.4	0.0018339
397.6	0.0019033
397.8	0.0021366
398	0.0024845
398.2	0.0026273
398.4	0.0027951
398.6	0.002779
398.8	0.002864
399	0.003025
399.2	0.0028027
399.4	0.0029405
399.6	0.0029473
399.8	0.0030471
400	0.0029589
400.2	0.0029711
400.4	0.0028749
400.6	0.0031782
400.8	0.0031907
401	0.0033389
401.2	0.0038722
401.4	0.0042405
401.6	0.0045126
401.8	0.0049211
402	0.0051204
402.2	0.0048353
402.4	0.0041648
402.6	0.0035053
402.8	0.0028489
403	0.0023373
403.2	0.0019587
403.4	0.0018889
403.6	0.001935
403.8	0.0020722
404	0.0021969
404.2	0.0022037
404.4	0.0025942
404.6	0.0025789
404.8	0.0025291
405	0.0024067
405.2	0.0021733
405.4	0.0023001
405.6	0.0019939
405.8	0.0019972
406	0.0022587
406.2	0.0022634
406.4	0.0022257
406.6	0.0025574
406.8	0.0026258
407	0.0029874
407.2	0.0032243
407.4	0.0034111
407.6	0.0040535
407.8	0.0040629
408	0.0045833
408.2	0.0051144
408.4	0.0054924
408.6	0.0060491
408.8	0.0064212
409	0.0068768
409.2	0.0080709
409.4	0.0085182
409.6	0.0090363
409.8	0.0093113
410	0.0096231
410.2	0.0097787
410.4	0.010145
410.6	0.010779
410.8	0.011493
411	0.011648
411.2	0.012781
411.4	0.013626
411.6	0.014961
411.8	0.013858
412	0.019205
412.2	0.02079
412.4	0.022644
412.6	0.023396
412.8	0.023264
413	0.023192
413.2	0.022421
413.4	0.021457
413.6	0.020137
413.8	0.017924
414	0.014995
414.2	0.012477
414.4	0.010155
414.6	0.0085664
414.8	0.0077672
415	0.0081618
415.2	0.0090914
415.4	0.010451
415.6	0.012584
415.8	0.014322
416	0.015593
416.2	0.016703
416.4	0.016575
416.6	0.01632
416.8	0.015172
417	0.014318
417.2	0.013428
417.4	0.012945
417.6	0.012451
417.8	0.011572
418	0.0099915
418.2	0.0088277
418.4	0.0075039
418.6	0.0063278
418.8	0.0057317
419	0.005021
419.2	0.0046735
419.4	0.0041777
419.6	0.0038686
419.8	0.0036617
420	0.0032697
420.2	0.0030802
420.4	0.0031419
420.6	0.0027192
420.8	0.0027183
421	0.0027193
421.2	0.0026626
421.4	0.0026756
421.6	0.0027085
421.8	0.002642
422	0.0027573
422.2	0.0026048
422.4	0.002613
422.6	0.0026836
422.8	0.002773
423	0.0030009
423.2	0.0029406
423.4	0.0028003
423.6	0.0030106
423.8	0.0029501
424	0.0031684
424.2	0.0033115
424.4	0.0033999
424.6	0.0035454
424.8	0.0037153
425	0.0034873
425.2	0.0036352
425.4	0.0030342
425.6	0.0028142
425.8	0.0027325
426	0.0023445
426.2	0.0024574
426.4	0.0023402
426.6	0.0026155
426.8	0.0028676
427	0.0033587
427.2	0.0038931
427.4	0.0041539
427.6	0.0043035
427.8	0.0043847
428	0.004149
428.2	0.0038351
428.4	0.0037063
428.6	0.0036198
428.8	0.0035969
429	0.003635
429.2	0.0035664
429.4	0.0042056
429.6	0.0043737
429.8	0.004814
430	0.0056243
430.2	0.006212
430.4	0.00667
430.6	0.0066491
430.8	0.0065364
431	0.0063307
431.2	0.0057282
431.4	0.0050767
431.6	0.0050619
431.8	0.0047668
432	0.0046312
432.2	0.004833
432.4	0.0046393
432.6	0.004819
432.8	0.0049191
433	0.0051819
433.2	0.0058801
433.4	0.0065732
433.6	0.0082318
433.8	0.010454
434	0.013185
434.2	0.016118
434.4	0.01942
434.6	0.02166
434.8	0.022825
435	0.021527
435.2	0.020646
435.4	0.018295
435.6	0.015564
435.8	0.013505
436	0.011477
436.2	0.0091902
436.4	0.0081433
436.6	0.0076461
436.8	0.0079113
437	0.0090406
437.2	0.010218
437.4	0.011577
437.6	0.011919
437.8	0.012093
438	0.011684
438.2	0.011177
438.4	0.010907
438.6	0.010798
438.8	0.010626
439	0.011004
439.2	0.010854
439.4	0.010506
439.6	0.010336
439.8	0.0091239
440	0.0079331
440.2	0.0065984
440.4	0.0055015
440.6	0.0048564
440.8	0.0046618
441	0.0041271
441.2	0.0040476
441.4	0.004063
441.6	0.00406
441.8	0.0043578
442	0.0046906
442.2	0.0056314
442.4	0.0064272
442.6	0.0067655
442.8	0.0073092
443	0.0070238
443.2	0.0064128
443.4	0.0057758
443.6	0.0050261
443.8	0.0045285
444	0.0044686
444.2	0.0044187
444.4	0.0045168
444.6	0.0043659
444.8	0.0041435
445	0.0041225
445.2	0.0038551
445.4	0.0037308
445.6	0.0034077
445.8	0.0034089
446	0.0035156
446.2	0.0033169
446.4	0.003016
446.6	0.0033055
446.8	0.0027772
447	0.0030795
447.2	0.0028806
447.4	0.0027432
447.6	0.0030332
447.8	0.0029303
448	0.0029386
448.2	0.0027652
448.4	0.0027656
448.6	0.0029305
448.8	0.0029354
449	0.0029223
449.2	0.0028772
449.4	0.0028069
449.6	0.0026775
449.8	0.0027922
450	0.0027536
450.2	0.0030014
450.4	0.0028997
450.6	0.002977
450.8	0.0030679
451	0.0030695
451.2	0.0028794
451.4	0.0030043
451.6	0.0029866
451.8	0.0030225
452	0.0028735
452.2	0.002943
452.4	0.0030995
452.6	0.0031123
452.8	0.0031053
453	0.0031775
453.2	0.003238
453.4	0.0033869
453.6	0.0036435
453.8	0.0036
454	0.0040504
454.2	0.0042138
454.4	0.0043752
454.6	0.0041429
454.8	0.004296
455	0.0044805
455.2	0.0043127
455.4	0.0044249
455.6	0.0042923
455.8	0.0042552
456	0.0037963
456.2	0.003473
456.4	0.0033875
456.6	0.0034749
456.8	0.0032738
457	0.0037022
457.2	0.0042093
457.4	0.0044717
457.6	0.0049697
457.8	0.0052434
458	0.0050751
458.2	0.0054206
458.4	0.0053298
458.6	0.0049624
458.8	0.0050122
459	0.0046453
459.2	0.0050318
459.4	0.0041811
459.6	0.0037161
459.8	0.0039876
460	0.0038184
460.2	0.0040115
460.4	0.0041301
460.6	0.0035652
460.8	0.0033218
461	0.0031126
461.2	0.0029579
461.4	0.00322
461.6	0.0028698
461.8	0.0030014
462	0.0030583
462.2	0.0030102
462.4	0.003138
462.6	0.0034121
462.8	0.0036021
463	0.0041056
463.2	0.0046987
463.4	0.0052119
463.6	0.0060181
463.8	0.0061394
464	0.0064355
464.2	0.0064784
464.4	0.006486
464.6	0.0061124
464.8	0.0054501
465	0.0049731
465.2	0.0048311
465.4	0.0043719
465.6	0.0046097
465.8	0.0046643
466	0.0045161
466.2	0.0046733
466.4	0.0046776
466.6	0.0048069
466.8	0.0052074
467	0.0055571
467.2	0.0061184
467.4	0.0068321
467.6	0
467.8	0
468	0
468.2	0
468.4	0.011182
468.6	0.010761
468.8	0.010711
469	0.010579
469.2	0.010726
469.4	0.010893
469.6	0.010603
469.8	0.0099155
470	0.009236
470.2	0.0082953
470.4	0.0072148
470.6	0.0067444
470.8	0.0062578
471	0.0065143
471.2	0.0064447
471.4	0.0067091
471.6	0.0073443
471.8	0.0074234
472	0.0080795
472.2	0.0087415
472.4	0.0093983
472.6	0.010857
472.8	0.012454
473	0.014796
473.2	0.018019
473.4	0.020488
473.6	0.022491
473.8	0.023598
474	0.023724
474.2	0.023736
474.4	0.022527
474.6	0.021514
474.8	0.021288
475	0.020508
475.2	0.019878
475.4	0.019344
475.6	0.018744
475.8	0.019043
476	0.018822
476.2	0.018706
476.4	0.019021
476.6	0.019691
476.8	0.020421
477	0.02099
477.2	0.022269
477.4	0.023752
477.6	0.027091
477.8	0.03188
478	0.038201
478.2	0.042974
478.4	0.045342
478.6	0.044436
478.8	0.040051
479	0.034171
479.2	0.02798
479.4	0.022995
479.6	0.019991
479.8	0.017656
480	0.016148
480.2	0.015074
480.4	0.014213
480.6	0.013684
480.8	0.013403
481	0.013255
481.2	0.013528
481.4	0.013303
481.6	0.01347
481.8	0.013703
482	0.013917
482.2	0.01419
482.4	0.014428
482.6	0.014842
482.8	0.015253
483	0.015838
483.2	0.0167
483.4	0.017519
483.6	0.018222
483.8	0.019554
484	0.020261
484.2	0.020999
484.4	0.022198
484.6	0.02313
484.8	0.0244
485	0.0258
485.2	0.026889
485.4	0.029284
485.6	0.029264
485.8	0.030373
486	0.031347
486.2	0.03131
486.4	0.031487
486.6	0.031581
486.8	0.031476
487	0.032073
487.2	0.032452
487.4	0.032553
487.6	0.032014
487.8	0.02992
488	0.028019
488.2	0.025071
488.4	0.022337
488.6	0.019983
488.8	0.017384
489	0.015522
489.2	0.014256
489.4	0.012718
489.6	0.011641
489.8	0.010849
490	0.010163
490.2	0.0096488
490.4	0.0088543
490.6	0.0084185
490.8	0.0082846
491	0.0080184
491.2	0.0072878
491.4	0.0070883
491.6	0.0068992
491.8	0.006616
492	0.0063991
492.2	0.0059988
492.4	0.0060034
492.6	0.005956
492.8	0.0056612
493	0.0054075
493.2	0.0053167
493.4	0.0053237
493.6	0.0050825
493.8	0.0051539
494	0.0051816
494.2	0.0049869
494.4	0.0048864
494.6	0.0049249
494.8	0.0047006
495	0.0047144
495.2	0.0045796
495.4	0.0044819
495.6	0.0044936
495.8	0.0044128
496	0.0043773
496.2	0.0042415
496.4	0.0042603
496.6	0.0044334
496.8	0.0041706
497	0.0040477
497.2	0.0041213
497.4	0.0039074
497.6	0.0039604
497.8	0.0040694
498	0.0038959
498.2	0.0039868
498.4	0.0039673
498.6	0.0040789
498.8	0.0041869
499	0.0039489
499.2	0.0040245