File: lasermedia/data/005-ems.txt
# Optical emission spectrum of Ce:KYF4 (Ce:KYF4)
# assuming unity concentration per meter.  This data was part of the NASA
# Laser Spectra Database found on the web until December of 2005 which
# was created by Pat Cross working at NASA Langley Research Center, Internal
# Operations Group, Aerospace Electronics Systems Division, Remote Sensing.
#
# The spectra was collected by GA on 15 August 1994 and was
# annotated on  6 April 1995.  The sample name was "" was a 9.990
# long piece of :.
# The incident light was unpolarized.
#
# Spectra were recorded from 279.8nm to 449.4nm
# every 0.1nm at room temperature.  The
# excitation wavelength was unknown.
#
# SLIT WIDTH IS 1500 MICRONS, SAMPLE IS RECTANGULAR. C-AXIS IS CUT PERP. TO LONG AXIS OF CRYSTAL. PUMP LIGHT IS ALONG A(=B & LONG AXIS ) OF CRYSTAL. SAMPLE IS PLACED WITH C-AXIS IN THE SAME DIRECTION AS EMISSION OBSERVED. (SIGMA POL.) MANY RECORDS MISSING FROM END OF FILE. FILE TRUNCATED AT MISSING DATA POINTS. CONCENTRATION IS ATOMIC PERCENT. FORMAT(1X,G15.8).
#
##Wavelength (nm)	Absorbance (/meter)
279.8	0.00155387
280	0.00211358
280.2	0.00268236
280.4	0.00272437
280.6	0.00266221
280.8	0.00225322
281	0.00188632
281.2	0.00216188
281.4	0.00224566
281.6	0.00276294
281.8	0.00292386
282	0.00213834
282.2	0.00258408
282.4	0.00247795
282.6	0.00332211
282.8	0.00369924
283	0.00344152
283.2	0.00330295
283.4	0.00266639
283.6	0.00191519
283.8	0.00162968
284	0.00198894
284.2	0.00250915
284.4	0.00246739
284.6	0.00223146
284.8	0.00329214
285	0.00334398
285.2	0.00322605
285.4	0.00391372
285.6	0.00453284
285.8	0.00491978
286	0.00406506
286.2	0.00357885
286.4	0.00369236
286.6	0.00394123
286.8	0.00283247
287	0.00212031
287.2	0.0021648
287.4	0.00374002
287.6	0.00548977
287.8	0.00534236
288	0.0052544
288.2	0.00515073
288.4	0.00510896
288.6	0.00550131
288.8	0.00479915
289	0.00441712
289.2	0.00515269
289.4	0.00609169
289.6	0.0070867
289.8	0.00692946
290	0.00710513
290.2	0.00713338
290.4	0.00602609
290.6	0.0061794
290.8	0.0066602
291	0.00693585
291.2	0.00774488
291.4	0.00864383
291.6	0.00918581
291.8	0.00994005
292	0.0103233
292.2	0.0106152
292.4	0.0104926
292.6	0.0111719
292.8	0.0124421
293	0.0128347
293.2	0.0138277
293.4	0.0146739
293.6	0.015047
293.8	0.0162907
294	0.0175385
294.2	0.0192566
294.4	0.0216797
294.6	0.0239773
294.8	0.0255215
295	0.0287817
295.2	0.0324006
295.4	0.0356902
295.6	0.0390807
295.8	0.0419601
296	0.047225
296.2	0.0531533
296.4	0.0597499
296.6	0.0675184
296.8	0.075019
297	0.084237
297.2	0.0939046
297.4	0.104444
297.6	0.115431
297.8	0.127376
298	0.141891
298.2	0.157581
298.4	0.172272
298.6	0.189595
298.8	0.207977
299	0.225205
299.2	0.242272
299.4	0.263543
299.6	0.282068
299.8	0.302386
300	0.324841
300.2	0.346928
300.4	0.369432
300.6	0.393411
300.8	0.416407
301	0.438788
301.2	0.463872
301.4	0.488539
301.6	0.516498
301.8	0.538609
302	0.558632
302.2	0.583888
302.4	0.6088
302.6	0.635825
302.8	0.658404
303	0.681301
303.2	0.704444
303.4	0.727784
303.6	0.748372
303.8	0.772228
304	0.798172
304.2	0.815272
304.4	0.834165
304.6	0.854139
304.8	0.869739
305	0.882195
305.2	0.896814
305.4	0.910228
305.6	0.921161
305.8	0.931381
306	0.942805
306.2	0.951576
306.4	0.958406
306.6	0.961895
306.8	0.969167
307	0.973933
307.2	0.976439
307.4	0.980837
307.6	0.985922
307.8	0.990345
308	0.990443
308.2	0.991057
308.4	0.994792
308.6	0.997371
308.8	0.997641
309	1
309.2	1
309.4	0.997224
309.6	0.995897
309.8	0.996536
310	0.997764
310.2	0.994226
310.4	0.988404
310.6	0.983834
310.8	0.980468
311	0.97639
311.2	0.975505
311.4	0.970248
311.6	0.96472
311.8	0.964204
312	0.962091
312.2	0.959733
312.4	0.957497
312.6	0.952927
312.8	0.950077
313	0.945287
313.2	0.941994
313.4	0.936491
313.6	0.930595
313.8	0.92519
314	0.923077
314.2	0.918704
314.4	0.914183
314.6	0.90922
314.8	0.902292
315	0.896863
315.2	0.891359
315.4	0.885045
315.6	0.879616
315.8	0.87485
316	0.871778
316.2	0.869813
316.4	0.864433
316.6	0.85861
316.8	0.853328
317	0.846989
317.2	0.83957
317.4	0.833378
317.6	0.828342
317.8	0.823748
318	0.817065
318.2	0.811021
318.4	0.803479
318.6	0.798663
318.8	0.79429
319	0.788836
319.2	0.782326
319.4	0.777682
319.6	0.773457
319.8	0.76815
320	0.763089
320.2	0.756259
320.4	0.752033
320.6	0.747537
320.8	0.742967
321	0.737955
321.2	0.735155
321.4	0.731764
321.6	0.727293
321.8	0.71948
322	0.714788
322.2	0.710562
322.4	0.706484
322.6	0.701398
322.8	0.696411
323	0.692136
323.2	0.687713
323.4	0.683267
323.6	0.677665
323.8	0.674054
324	0.671892
324.2	0.668354
324.4	0.662678
324.6	0.659853
324.8	0.654006
325	0.648232
325.2	0.644473
325.4	0.64155
325.6	0.637152
325.8	0.632975
326	0.630027
326.2	0.626858
326.4	0.621478
326.6	0.617006
326.8	0.612952
327	0.609046
327.2	0.604648
327.4	0.601946
327.6	0.598727
327.8	0.594133
328	0.589662
328.2	0.585952
328.4	0.581161
328.6	0.577427
328.8	0.574012
329	0.569319
329.2	0.565585
329.4	0.561531
329.6	0.557207
329.8	0.55475
330	0.549935
330.2	0.545586
330.4	0.541803
330.6	0.538167
330.8	0.534997
331	0.530993
331.2	0.527578
331.4	0.523229
331.6	0.5192
331.8	0.515932
332	0.512002
332.2	0.508095
332.4	0.503869
332.6	0.500258
332.8	0.496131
333	0.492863
333.2	0.488834
333.4	0.485099
333.6	0.481046
333.8	0.477975
334	0.473675
334.2	0.470088
334.4	0.466354
334.6	0.462914
334.8	0.458394
335	0.45493
335.2	0.452448
335.4	0.448665
335.6	0.444906
335.8	0.441024
336	0.437462
336.2	0.434145
336.4	0.431467
336.6	0.428003
336.8	0.42449
337	0.420362
337.2	0.416579
337.4	0.412844
337.6	0.409749
337.8	0.406727
338	0.403017
338.2	0.3997
338.4	0.39604
338.6	0.392625
338.8	0.388915
339	0.384763
339.2	0.381422
339.4	0.378572
339.6	0.374985
339.8	0.372282
340	0.369383
340.2	0.365673
340.4	0.361497
340.6	0.358549
340.8	0.355821
341	0.352824
341.2	0.349286
341.4	0.345847
341.6	0.341695
341.8	0.338009
342	0.334349
342.2	0.330541
342.4	0.327298
342.6	0.324104
342.8	0.321524
343	0.318994
343.2	0.3158
343.4	0.311869
343.6	0.308405
343.8	0.305702
344	0.303123
344.2	0.300052
344.4	0.297079
344.6	0.294229
344.8	0.29472
345	0.294794
345.2	0.291944
345.4	0.283419
345.6	0.278825
345.8	0.275876
346	0.272461
346.2	0.26971
346.4	0.267302
346.6	0.265116
346.8	0.26256
347	0.260276
347.2	0.257524
347.4	0.254478
347.6	0.251996
347.8	0.249711
348	0.246517
348.2	0.243712
348.4	0.241722
348.6	0.239262
348.8	0.23612
349	0.233155
349.2	0.230167
349.4	0.227352
349.6	0.224023
349.8	0.22062
350	0.218107
350.2	0.216159
350.4	0.21435
350.6	0.212505
350.8	0.210972
351	0.208911
351.2	0.206601
351.4	0.204248
351.6	0.202037
351.8	0.199975
352	0.198845
352.2	0.196551
352.4	0.193504
352.6	0.190912
352.8	0.189748
353	0.18835
353.2	0.186549
353.4	0.184038
353.6	0.182409
353.8	0.180024
354	0.178176
354.2	0.176208
354.4	0.174508
354.6	0.172036
354.8	0.169506
355	0.167727
355.2	0.16655
355.4	0.164742
355.6	0.162789
355.8	0.161303
356	0.159313
356.2	0.157008
356.4	0.155131
356.6	0.153593
356.8	0.151515
357	0.149544
357.2	0.147871
357.4	0.146115
357.6	0.144911
357.8	0.143336
358	0.1421
358.2	0.141083
358.4	0.140031
358.6	0.138911
358.8	0.137186
359	0.135189
359.2	0.134066
359.4	0.133246
359.6	0.132383
359.8	0.131283
360	0.130108
360.2	0.128922
360.4	0.127652
360.6	0.126939
360.8	0.125487
361	0.124148
361.2	0.122391
361.4	0.121028
361.6	0.119546
361.8	0.118033
362	0.11678
362.2	0.115493
362.4	0.114176
362.6	0.112898
362.8	0.111569
363	0.109965
363.2	0.10826
363.4	0.107174
363.6	0.106076
363.8	0.104872
364	0.103599
364.2	0.102332
364.4	0.100872
364.6	0.0994276
364.8	0.0981746
365	0.0970469
365.2	0.0959585
365.4	0.0945262
365.6	0.0932511
365.8	0.0920792
366	0.0910719
366.2	0.0900474
366.4	0.088959
366.6	0.0877847
366.8	0.0869862
367	0.0859568
367.2	0.0849446
367.4	0.0836449
367.6	0.0823944
367.8	0.0809154
368	0.079859
368.2	0.0790802
368.4	0.0780974
368.6	0.0771417
368.8	0.0761639
369	0.0750092
369.2	0.0738742
369.4	0.0729455
369.6	0.0719972
369.8	0.0708351
370	0.0695968
370.2	0.0686854
370.4	0.0678574
370.6	0.0671818
370.8	0.0662875
371	0.0652507
371.2	0.0646832
371.4	0.0639388
371.6	0.0628922
371.8	0.0618087
372	0.0612068
372.2	0.0605312
372.4	0.0599489
372.6	0.0593101
372.8	0.0584158
373	0.0573987
373.2	0.0564823
373.4	0.0560376
373.6	0.0554554
373.8	0.0547724
374	0.0539493
374.2	0.0533695
374.4	0.053087
374.6	0.0525833
374.8	0.0517235
375	0.0508095
375.2	0.0501879
375.4	0.049731
375.6	0.0491364
375.8	0.0485836
376	0.0480554
376.2	0.0473356
376.4	0.0467189
376.6	0.0460924
376.8	0.0455986
377	0.0451171
377.2	0.0448051
377.4	0.0440361
377.6	0.043245
377.8	0.0427708
378	0.0424121
378.2	0.0420976
378.4	0.041422
378.6	0.0409356
378.8	0.0404491
379	0.0401371
379.2	0.0398644
379.4	0.0392232
379.6	0.0385991
379.8	0.0375673
380	0.0370759
380.2	0.0366828
380.4	0.0364273
380.6	0.0358819
380.8	0.0356976
381	0.0353021
381.2	0.0347517
381.4	0.0345478
381.6	0.0343513
381.8	0.033796
382	0.0330958
382.2	0.032828
382.4	0.0327077
382.6	0.0324374
382.8	0.0318576
383	0.0312852
383.2	0.0307987
383.4	0.0305727
383.6	0.0303344
383.8	0.0298184
384	0.0295261
384.2	0.0294769
384.4	0.02916
384.6	0.028934
384.8	0.0285999
385	0.0281159
385.2	0.0279119
385.4	0.0275901
385.6	0.0274255
385.8	0.0270963
386	0.0270299
386.2	0.0267941
386.4	0.0264747
386.6	0.0262413
386.8	0.0258089
387	0.0252807
387.2	0.0252365
387.4	0.0249318
387.6	0.0246517
387.8	0.024696
388	0.0244183
388.2	0.0241759
388.4	0.0240361
388.6	0.0238009
388.8	0.023568
389	0.023203
389.2	0.0227209
389.4	0.0223045
389.6	0.0218682
389.8	0.0216694
390	0.0216016
390.2	0.0213142
390.4	0.020969
390.6	0.020838
390.8	0.0208196
391	0.0207444
391.2	0.0202872
391.4	0.019941
391.6	0.0201322
391.8	0.0199364
392	0.0197587
392.2	0.0196818
392.4	0.0195814
392.6	0.0196516
392.8	0.0192177
393	0.0190635
393.2	0.0190183
393.4	0.0186758
393.6	0.0185738
393.8	0.0187544
394	0.0184746
394.2	0.0180078
394.4	0.0176559
394.6	0.0174835
394.8	0.0172891
395	0.0171282
395.2	0.0171312
395.4	0.0170349
395.6	0.0171329
395.8	0.0170457
396	0.0170245
396.2	0.0168393
396.4	0.0166953
396.6	0.016261
396.8	0.0165396
397	0.0164855
397.2	0.0159025
397.4	0.0158504
397.6	0.0157853
397.8	0.0160669
398	0.0161013
398.2	0.0159612
398.4	0.0157404
398.6	0.015721
398.8	0.015607
399	0.0155119
399.2	0.01525
399.4	0.0147132
399.6	0.0147579
399.8	0.0145486
400	0.0143034
400.2	0.0138378
400.4	0.013573
400.6	0.0135071
400.8	0.0136125
401	0.0136784
401.2	0.0137838
401.4	0.0133907
401.6	0.0132931
401.8	0.0131867
402	0.0129956
402.2	0.0127322
402.4	0.0127443
402.6	0.0128843
402.8	0.0130922
403	0.0128037
403.2	0.012673
403.4	0.0126111
403.6	0.0125666
403.8	0.0125487
404	0.0125814
404.2	0.0125352
404.4	0.012634
404.6	0.012703
404.8	0.0127575
405	0.0127244
405.2	0.0127099
405.4	0.012474
405.6	0.0122674
405.8	0.0120642
406	0.0118581
406.2	0.0114245
406.4	0.0112365
406.6	0.0114009
406.8	0.0113557
407	0.0101339
407.2	0.00956269
407.4	0.0102064
407.6	0.0108655
407.8	0.0107604
408	0.0108073
408.2	0.0106909
408.4	0.0106211
408.6	0.0105518
408.8	0.0104847
409	0.0104624
409.2	0.0102788
409.4	0.010114
409.6	0.0101228
409.8	0.0100791
410	0.0101081
410.2	0.00999238
410.4	0.009758
410.6	0.00953664
410.8	0.00972385
411	0.00975088
411.2	0.00969953
411.4	0.00967472
411.6	0.00971206
411.8	0.00981009
412	0.00969707
412.2	0.00945606
412.4	0.00952829
412.6	0.00966489
412.8	0.00984006
413	0.0100226
413.2	0.0101747
413.4	0.00997052
413.6	0.0098747
413.8	0.00954942
414	0.00912513
414.2	0.00889296
414.4	0.00897993
414.6	0.00885635
414.8	0.00861558
415	0.00873302
415.2	0.00881065
415.4	0.00898754
415.6	0.00892637
415.8	0.00852173
416	0.00839496
416.2	0.00831094
416.4	0.00829423
416.6	0.0082387
416.8	0.00817802
417	0.00804142
417.2	0.00791367
417.4	0.0079149
417.6	0.00830111
417.8	0.00818392
418	0.00794462
418.2	0.00821758
418.4	0.00799179
418.6	0.00760484
418.8	0.00743926
419	0.00725401
419.2	0.00732428
419.4	0.00719333
419.6	0.00716385
419.8	0.00714272
420	0.0070781
420.2	0.00762106
420.4	0.00783407
420.6	0.00754981
420.8	0.0075417
421	0.00776921
421.2	0.00807483
421.4	0.00828686
421.6	0.00861214
421.8	0.00843967
422	0.00815026
422.2	0.00801784
422.4	0.00785495
422.6	0.00782694
422.8	0.00790065
423	0.00794511
423.2	0.00788689
423.4	0.00776822
423.6	0.00781441
423.8	0.00757585
424	0.00726777
424.2	0.00664619
424.4	0.00639068
424.6	0.00664767
424.8	0.00649068
425	0.00646119
425.2	0.00639265
425.4	0.00602707
425.6	0.00572538
425.8	0.00568902
426	0.00551949
426.2	0.00573692
426.4	0.00567575
426.6	0.00579318
426.8	0.0060966
427	0.00600128
427.2	0.00607425
427.4	0.00642926
427.6	0.00623861
427.8	0.00616638
428	0.00601258
428.2	0.00583642
428.4	0.00531263
428.6	0.00505982
428.8	0.00546667
429	0.00574945
429.2	0.00562907
429.4	0.0054711
429.6	0.00555266
429.8	0.00580228
430	0.00607474
430.2	0.00628922
430.4	0.00631919
430.6	0.00629413
430.8	0.00583102
431	0.00553817
431.2	0.00522689
431.4	0.00507407
431.6	0.00492077
431.8	0.00463897
432	0.00441589
432.2	0.00416529
432.4	0.00435398
432.6	0.00479473
432.8	0.00458615
433	0.00427929
433.2	0.00438272
433.4	0.00500405
433.6	0.00563054
433.8	0.00621035
434	0.00616834
434.2	0.00578139
434.4	0.0049215
434.6	0.00490873
434.8	0.00495737
435	0.00505073
435.2	0.00549566
435.4	0.00622878
435.6	0.00738692
435.8	0.00861607
436	0.00847898
436.2	0.00770091
436.4	0.00653121
436.6	0.00542884
436.8	0.00460801
437	0.0044466
437.2	0.00452989
437.4	0.00454954
437.6	0.00441343
437.8	0.0044068
438	0.0043842
438.2	0.00414441
438.4	0.00432155
438.6	0.00443284
438.8	0.00414736
439	0.00402255
439.2	0.00364617
439.4	0.00345183
439.6	0.00360342
439.8	0.00361005
440	0.0039287
440.2	0.00384198
440.4	0.00383534
440.6	0.00423433
440.8	0.00459524
441	0.00460138
441.2	0.00485419
441.4	0.00536103
441.6	0.00580399
441.8	0.00784635
442	0.00820971
442.2	0.00779771
442.4	0.00454291
442.6	0.00380193
442.8	0.00364469
443	0.00383878
443.2	0.0040142
443.4	0.00399233
443.6	0.0040255
443.8	0.00417684
444	0.00450139
444.2	0.00420485
444.4	0.00404024
444.6	0.00405228
444.8	0.00429845
445	0.00443358
445.2	0.00437191
445.4	0.0042503
445.6	0.00373904
445.8	0.00398939
446	0.00411026
446.2	0.00407832
446.4	0.0040255
446.6	0.00369776
446.8	0.00344004
447	0.0038066
447.2	0.00373683
447.4	0.00351719
447.6	0.00312729
447.8	0.00278947
448	0.00287915
448.2	0.00315702
448.4	0.00320296
448.6	0.003371
448.8	0.00333071
449	0.00360784
449.2	0.00347419
449.4	0.00357664