File: lasermedia/data/006-ems.txt
# Optical emission spectrum of Ce:KYF4 (Ce:KYF4)
# assuming unity concentration per meter.  This data was part of the NASA
# Laser Spectra Database found on the web until December of 2005 which
# was created by Pat Cross working at NASA Langley Research Center, Internal
# Operations Group, Aerospace Electronics Systems Division, Remote Sensing.
#
# The spectra was collected by GA on 15 August 1994 and was
# annotated on  6 April 1995.  The sample name was "" was a 9.990
# long piece of :.
# The incident light was unpolarized.
#
# Spectra were recorded from 279.8nm to 449.4nm
# every 0.1nm at room temperature.  The
# excitation wavelength was unknown.
#
# SLIT WIDTH IS 1500 MICRONS, SAMPLE IS RECTANGULAR. C-AXIS IS CUT PERP. TO LONG AXIS OF CRYSTAL. PUMP LIGHT IS ALONG A(=B & LONG AXIS ) OF CRYSTAL. POLARIZER AFTER SAMPLE IS PLACED PARALLEL TO THE C-AXIS (P-POL). 11 RECORDS MISSING FROM MIDDLE OF FILE. INTENSITY SET TO ZERO. CONCENTRATION IS ATOMIC PERCENT. FORMAT(1X,G15.8).
#
##Wavelength (nm)	Absorbance (/meter)
279.8	0.000891352
280	0.00124927
280.2	0.00139173
280.4	0.00110195
280.6	0.00178391
280.8	0.00215074
281	0.00291415
281.2	0.00272155
281.4	0.00244826
281.6	0.00268914
281.8	0.00244659
282	0.00201861
282.2	0.00148544
282.4	0.00219535
282.6	0.00263669
282.8	0.00267143
283	0.00256285
283.2	0.0028759
283.4	0.00279405
283.6	0.00216945
283.8	0.00184521
284	0.00173897
284.2	0.00204801
284.4	0.00221088
284.6	0.00350851
284.8	0.00337938
285	0.00386466
285.2	0.00292184
285.4	0.00329035
285.6	0.00321016
285.8	0.00286571
286	0.00242671
286.2	0.0028166
286.4	0.00254966
286.6	0.00242504
286.8	0.00270267
287	0.00325727
287.2	0.00237659
287.4	0.00320014
287.6	0.00347777
287.8	0.00322119
288	0.00303409
288.2	0.00326178
288.4	0.00304746
288.6	0.00411239
288.8	0.00484673
289	0.00530027
289.2	0.00545128
289.4	0.00487196
289.6	0.00418389
289.8	0.00362695
290	0.00398777
290.2	0.00341162
290.4	0.0035486
290.6	0.00455323
290.8	0.00448441
291	0.00501512
291.2	0.00540651
291.4	0.00493377
291.6	0.00446436
291.8	0.00570336
292	0.00636487
292.2	0.00614887
292.4	0.00544226
292.6	0.00516914
292.8	0.0046588
293	0.00461353
293.2	0.00564623
293.4	0.00685081
293.6	0.00661143
293.8	0.00630039
294	0.0429982
294.2	0.0521424
294.4	0.0493176
294.6	0.00947781
294.8	0.00848705
295	0.00958438
295.2	0.00978902
295.4	0.0100783
295.6	0.0104582
295.8	0.0116797
296	0.0129307
296.2	0.0142916
296.4	0.0173697
296.6	0.0193174
296.8	0.0210163
297	0.024075
297.2	0.0292084
297.4	0.0344553
297.6	0.0387217
297.8	0.0422381
298	0.0485358
298.2	0.0562735
298.4	0.063956
298.6	0.0732556
298.8	0.0859195
299	0.0985617
299.2	0.110487
299.4	0.123088
299.6	0.136106
299.8	0.150936
300	0.168
300.2	0.187361
300.4	0.207073
300.6	0.227653
300.8	0.251558
301	0.277935
301.2	0.304061
301.4	0.325159
301.6	0.34898
301.8	0.37093
302	0.401634
302.2	0.427877
302.4	0.453853
302.6	0.485425
302.8	0.51825
303	0.543057
303.2	0.569083
303.4	0.598383
303.6	0.625562
303.8	0.654194
304	0.680637
304.2	0.708083
304.4	0.735997
304.6	0.76351
304.8	0.781818
305	0.800929
305.2	0.822177
305.4	0.849172
305.6	0.873812
305.8	0.893473
306	0.910412
306.2	0.924043
306.4	0.933732
306.6	0.937791
306.8	0.945242
307	0.954997
307.2	0.96046
307.4	0.964218
307.6	0.968779
307.8	0.966507
308	0.974208
308.2	0.984749
308.4	0.988591
308.6	0.987789
308.8	0.989025
309	0.99103
309.2	0.994888
309.4	0.997511
309.6	0.996793
309.8	0.993402
310	0.998162
310.2	1
310.4	0.996926
310.6	0.997595
310.8	0.994354
311	0.989509
311.2	0.98849
311.4	0.984632
311.6	0.979203
311.8	0.977883
312	0.976931
312.2	0.973272
312.4	0.967893
312.6	0.955916
312.8	0.954312
313	0.958038
313.2	0.960009
313.4	0.956768
313.6	0.952208
313.8	0.948633
314	0.942168
314.2	0.93278
314.4	0.930792
314.6	0.927351
314.8	0.920903
315	0.918781
315.2	0.916192
315.4	0.913853
315.6	0.908892
315.8	0.903212
316	0.900673
316.2	0.89643
316.4	0.891068
316.6	0.884653
316.8	0.87747
317	0.869185
317.2	0.864006
317.4	0.859546
317.6	0.853465
317.8	0.850342
318	0.846466
318.2	0.838832
318.4	0.831382
318.6	0.825719
318.8	0.823263
319	0.822595
319.2	0.817834
319.4	0.807477
319.6	0.80128
319.8	0.795316
320	0.790472
320.2	0.786362
320.4	0.784725
320.6	0.78115
320.8	0.776874
321	0.775888
321.2	0.775989
321.4	0.772146
321.6	0.765565
321.8	0.76037
322	0.756193
322.2	0.753871
322.4	0.749094
322.6	0.743564
322.8	0.739071
323	0.735813
323.2	0.733258
323.4	0.731136
323.6	0.726559
323.8	0.722082
324	0.720161
324.2	0.716586
324.4	0.711441
324.6	0.708367
324.8	0.705244
325	0.701184
325.2	0.698528
325.4	0.695204
325.6	0.693968
325.8	0.690694
326	0.687704
326.2	0.682609
326.4	0.679167
326.6	0.675826
326.8	0.672335
327	0.669963
327.2	0.665152
327.4	0.662663
327.6	0.660692
327.8	0.657351
328	0.654444
328.2	0.650936
328.4	0.64534
328.6	0.642267
328.8	0.638475
329	0.638174
329.2	0.635902
329.4	0.631609
329.6	0.626664
329.8	0.626063
330	0.624693
330.2	0.620901
330.4	0.615372
330.6	0.610962
330.8	0.607621
331	0.60565
331.2	0.601991
331.4	0.601022
331.6	0.600321
331.8	0.597247
332	0.593756
332.2	0.58963
332.4	0.587341
332.6	0.583917
332.8	0.580342
333	0.576917
333.2	0.574077
333.4	0.570436
333.6	0.566544
333.8	0.563036
334	0.558609
334.2	0.555402
334.4	0.553597
334.6	0.551893
334.8	0.547517
335	0.543808
335.2	0.540935
335.4	0.53726
335.6	0.533184
335.8	0.529609
336	0.526853
336.2	0.523128
336.4	0.51967
336.6	0.517599
336.8	0.513172
337	0.507626
337.2	0.503383
337.4	0.500493
337.6	0.496233
337.8	0.492692
338	0.489301
338.2	0.486411
338.4	0.485926
338.6	0.483304
338.8	0.480163
339	0.47612
339.2	0.471777
339.4	0.467868
339.6	0.464811
339.8	0.462773
340	0.460251
340.2	0.456175
340.4	0.451798
340.6	0.449376
340.8	0.446302
341	0.442711
341.2	0.438284
341.4	0.435461
341.6	0.43197
341.8	0.429197
342	0.425488
342.2	0.422916
342.4	0.418422
342.6	0.413795
342.8	0.409736
343	0.40733
343.2	0.404824
343.4	0.40125
343.6	0.397374
343.8	0.392413
344	0.388721
344.2	0.385347
344.4	0.383693
344.6	0.379717
344.8	0.375457
345	0.37215
345.2	0.36946
345.4	0.365468
345.6	0.361425
345.8	0.357984
346	0.35491
346.2	0.351954
346.4	0.348045
346.6	0.344637
346.8	0.341296
347	0.337554
347.2	0.333846
347.4	0.33144
347.6	0.329452
347.8	0.326462
348	0.322887
348.2	0.318761
348.4	0.316189
348.6	0.313165
348.8	0.30934
349	0.306433
349.2	0.303977
349.4	0.30077
349.6	0.297396
349.8	0.294489
350	0.292702
350.2	0.289678
350.4	0.286972
350.6	0.284617
350.8	0.282194
351	0.280173
351.2	0.278386
351.4	0.276481
351.6	0.272756
351.8	0.269916
352	0.268062
352.2	0.265239
352.4	0.262466
352.6	0.259743
352.8	0.25996
353	0.258657
353.2	0.255734
353.4	0.252092
353.6	0.249019
353.8	0.245043
354	0.242871
354.2	0.240833
354.4	0.238495
354.6	0.235387
354.8	0.232347
355	0.230994
355.2	0.228572
355.4	0.225431
355.6	0.223043
355.8	0.220019
356	0.217012
356.2	0.214406
356.4	0.213604
356.6	0.211817
356.8	0.209779
357	0.206739
357.2	0.204283
357.4	0.20166
357.6	0.199756
357.8	0.197083
358	0.195146
358.2	0.192857
358.4	0.191003
358.6	0.188848
358.8	0.187445
359	0.185039
359.2	0.183669
359.4	0.181498
359.6	0.180479
359.8	0.178909
360	0.177706
360.2	0.176319
360.4	0.173312
360.6	0.171191
360.8	0.168919
361	0.168268
361.2	0.167766
361.4	0.166248
361.6	0.164512
361.8	0.162795
362	0.160217
362.2	0.158899
362.4	0.158757
362.6	0.157082
362.8	0.154785
363	0.153886
363.2	0.153106
363.4	0.151063
363.6	0.149543
363.8	0.148051
364	0.146697
364.2	0.14592
364.4	0.144251
364.6	0.142347
364.8	0.139819
365	0.138458
365.2	0.13742
365.4	0.136024
365.6	0.134444
365.8	0.133106
366	0.132651
366.2	0.130802
366.4	0.129319
366.6	0.127702
366.8	0.126522
367	0.12502
367.2	0.123287
367.4	0.120767
367.6	0.120138
367.8	0.119461
368	0.118076
368.2	0.116098
368.4	0.114772
368.6	0.113441
368.8	0.111822
369	0.110217
369.2	0.108935
369.4	0.107429
369.6	0.106415
369.8	0.105011
370	0.1038
370.2	0.103124
370.4	0.10221
370.6	0.100992
370.8	0.099569
371	0.0986753
371.2	0.0970516
371.4	0.0956066
371.6	0.0945392
371.8	0.0932997
372	0.0920134
372.2	0.0907773
372.4	0.0901893
372.6	0.0892087
372.8	0.0881012
373	0.0868851
373.2	0.085973
373.4	0.0850459
373.6	0.0844963
373.8	0.0834639
374	0.0816999
374.2	0.0804454
374.4	0.0799709
374.6	0.079398
374.8	0.0785109
375	0.0779446
375.2	0.0772063
375.4	0.0768605
375.6	0.0753387
375.8	0.0746638
376	0.0734594
376.2	0.0723719
376.4	0.0716369
376.6	0.0714648
376.8	0.0708501
377	0
377.2	0
377.4	0
377.6	0
377.8	0
378	0
378.2	0.0644655
378.4	0.063485
378.6	0.0629988
378.8	0.0622204
379	0.0615923
379.2	0.0614119
379.4	0.0610628
379.6	0.0605082
379.8	0.0594006
380	0.058831
380.2	0.0579607
380.4	0.0573894
380.6	0.0564723
380.8	0.0558275
381	0.0549421
381.2	0.0544744
381.4	0.0541253
381.6	0.0534454
381.8	0.0522192
382	0.0519987
382.2	0.0519486
382.4	0.0512637
382.6	0.0505204
382.8	0.0499958
383	0.049645
383.2	0.0490353
383.4	0.0487413
383.6	0.0480815
383.8	0.047313
384	0.0470591
384.2	0.0467267
384.4	0.0457294
384.6	0.0453235
384.8	0.0451113
385	0.0446453
385.2	0.0442043
385.4	0.0439721
385.6	0.0433573
385.8	0.0428679
386	0.0426323
386.2	0.042188
386.4	0.041184
386.6	0.0403855
386.8	0.0399512
387	0.0400164
387.2	0.0399997
387.4	0.0398393
387.6	0.0393164
387.8	0.0392346
388	0.038974
388.2	0.038112
388.4	0.0375958
388.6	0.0374672
388.8	0.0377161
389	0.0372467
389.2	0.0365017
389.4	0.036226
389.6	0.0357784
389.8	0.0356631
390	0.0351436
390.2	0.0348796
390.4	0.0341229
390.6	0.0335332
390.8	0.0332008
391	0.033869
391.2	0.0335833
391.4	0.0330722
391.6	0.0325259
391.8	0.0323255
392	0.0318978
392.2	0.0312463
392.4	0.0312965
392.6	0.0316105
392.8	0.0314501
393	0.0309423
393.2	0.0304729
393.4	0.0308053
393.6	0.0308037
393.8	0.0305965
394	0.0299384
394.2	0.0296544
394.4	0.0295842
394.6	0.0300152
394.8	0.0296627
395	0.029033
395.2	0.0285886
395.4	0.028485
395.6	0.0284633
395.8	0.0283464
396	0.0281777
396.2	0.0278235
396.4	0.0277968
396.6	0.027431
396.8	0.0271303
397	0.0271286
397.2	0.0273641
397.4	0.0272957
397.6	0.0269649
397.8	0.0266158
398	0.0264738
398.2	0.026128
398.4	0.0261781
398.6	0.0259359
398.8	0.0258774
399	0.02553
399.2	0.0250388
399.4	0.0249336
399.6	0.0247365
399.8	0.0241217
400	0.0240566
400.2	0.0243138
400.4	0.0246229
400.6	0.0248735
400.8	0.024815
401	0.024212
401.2	0.0235772
401.4	0.0234519
401.6	0.0229992
401.8	0.0226434
402	0.0224229
402.2	0.0223043
402.4	0.0218883
402.6	0.0216177
402.8	0.0217864
403	0.0218516
403.2	0.0222525
403.4	0.0224362
403.6	0.0223043
403.8	0.0220103
404	0.0218332
404.2	0.0219234
404.4	0.0223895
404.6	0.0224696
404.8	0.0223343
405	0.0223477
405.2	0.0224011
405.4	0.0220286
405.6	0.0213888
405.8	0.0206889
406	0.0204968
406.2	0.0204133
406.4	0.0204333
406.6	0.0208058
406.8	0.0203097
407	0.0196649
407.2	0.019842
407.4	0.0200925
407.6	0.0200207
407.8	0.0198453
408	0.0198019
408.2	0.019583
408.4	0.0191805
408.6	0.0190619
408.8	0.0193174
409	0.0193425
409.2	0.0195129
409.4	0.019436
409.6	0.0196482
409.8	0.0193358
410	0.0191287
410.2	0.0189533
410.4	0.0189717
410.6	0.0186342
410.8	0.0183419
411	0.01827
411.2	0.0185457
411.4	0.018554
411.6	0.0179109
411.8	0.0177121
412	0.0178173
412.2	0.0183285
412.4	0.0186209
412.6	0.0190969
412.8	0.0189048
413	0.0187278
413.2	0.0181147
413.4	0.0176854
413.6	0.0175451
413.8	0.01751
414	0.01752
414.2	0.0175618
414.4	0.0175334
414.6	0.0172594
414.8	0.0170138
415	0.0171909
415.2	0.0171375
415.4	0.0170523
415.6	0.0172277
415.8	0.0170924
416	0.0167482
416.2	0.0167666
416.4	0.0169103
416.6	0.0168184
416.8	0.0161226
417	0.0159579
417.2	0.0159451
417.4	0.0164352
417.6	0.0400314
417.8	0.0435962
418	0.0356781
418.2	0.0174682
418.4	0.0163836
418.6	0.0161639
418.8	0.0161738
419	0.0164673
419.2	0.0164748
419.4	0.0164719
419.6	0.0138356
419.8	0.00771846
420	0.00361626
420.2	0.0087433
420.4	0.0144624
420.6	0.0161569
420.8	0.0157414
421	0.0160968
421.2	0.0166617
421.4	0.0168535
421.6	0.0168635
421.8	0.0169119
422	0.0170389
422.2	0.0169938
422.4	0.0392262
422.6	0.0783957
422.8	0.103386
423	0.0808947
423.2	0.042923
423.4	0.0214206
423.6	0.0171024
423.8	0.0167917
424	0.0163717
424.2	0.0160159
424.4	0.0157007
424.6	0.0154568
424.8	0.0152876
425	0.0144326
425.2	0.0145698
425.4	0.0147679
425.6	0.0145776
425.8	0.0144391
426	0.0144139
426.2	0.0145975
426.4	0.0144577
426.6	0.0147351
426.8	0.0149949
427	0.015088
427.2	0.0152004
427.4	0.0156626
427.6	0.0160674
427.8	0.0160483
428	0.0157809
428.2	0.0151078
428.4	0.0145125
428.6	0.0140419
428.8	0.0141209
429	0.0144774
429.2	0.0145683
429.4	0.0145587
429.6	0.0148302
429.8	0.0149062
430	0.0142387
430.2	0.0140985
430.4	0.0141124
430.6	0.014887
430.8	0.0152086
431	0.0147236
431.2	0.0139198
431.4	0.0134661
431.6	0.0136276
431.8	0.0136538
432	0.0139861
432.2	0.0137557
432.4	0.0133573
432.6	0.0129905
432.8	0.0131525
433	0.0131555
433.2	0.0137729
433.4	0.0148476
433.6	0.0158971
433.8	0.0163229
434	0.0157366
434.2	0.0150165
434.4	0.0141575
434.6	0.0140354
434.8	0.0143668
435	0.0149025
435.2	0.0160298
435.4	0.0171325
435.6	0.0184622
435.8	0.0192523
436	0.0188263
436.2	0.0181531
436.4	0.0165411
436.6	0.0152881
436.8	0.0142497
437	0.0139226
437.2	0.0138314
437.4	0.013355
437.6	0.0131413
437.8	0.0134499
438	0.0137297
438.2	0.0136089
438.4	0.0137339
438.6	0.0133533
438.8	0.0127827
439	0.0127523
439.2	0.0128726
439.4	0.0130734
439.6	0.0131109
439.8	0.0132693
440	0.0128716
440.2	0.0128044
440.4	0.0127122
440.6	0.0127471
440.8	0.0129903
441	0.0137235
441.2	0.0144057
441.4	0.0148319
441.6	0.0150614
441.8	0.0148893
442	0.0146812
442.2	0.0146942
442.4	0.0144572
442.6	0.014243
442.8	0.013709
443	0.0137462
443.2	0.0163523
443.4	0.017368
443.6	0.0176787
443.8	0.0140217
444	0.0136981
444.2	0.0136624
444.4	0.0137487
444.6	0.0135818
444.8	0.0137003
445	0.0137372
445.2	0.0135723
445.4	0.0136457
445.6	0.0135177
445.8	0.0139823
446	0.0137881
446.2	0.0139788
446.4	0.0132563
446.6	0.0133179
446.8	0.0134424
447	0.0136181
447.2	0.0134895
447.4	0.0133652
447.6	0.0133009
447.8	0.0132509
448	0.0130917
448.2	0.0128418
448.4	0.0129197
448.6	0.013431
448.8	0.0132337
449	0.0128659
449.2	0.0130854
449.4	0.0130541