File: lasermedia/data/007-ems.txt
# Optical emission spectrum of Ce:LiCaALF6 (Ce:LiCaAlF6)
# assuming unity concentration per meter.  This data was part of the NASA
# Laser Spectra Database found on the web until December of 2005 which
# was created by Pat Cross working at NASA Langley Research Center, Internal
# Operations Group, Aerospace Electronics Systems Division, Remote Sensing.
#
# The spectra was collected by GA on 15 August 1994 and was
# annotated on  6 April 1995.  The sample name was "" was a 9.990
# long piece of :.
# The incident light was unpolarized.
#
# Spectra were recorded from 260nm to 399.6nm
# every 0.1nm at room temperature.  The
# excitation wavelength was unknown.
#
# SLIT WIDTH IS 1500 MICRONS, SAMPLE IS RECTANGULAR SHAPE. C-AXIS IS CUT PERP. TO LONG AXIS OF CRYSTAL. PUMP LIGHT IS ALONG A(=B & LONG AXIS ) OF CRYSTAL. SAMPLE IS PLACED SO THAT C-AXIS IS IN THE SAME DIRECTION AS EMISSION IS OBSERVED. CONCENTRATION IS ATOMIC PERCENT. FIVE INTENSITY POINTS IN MIDDLE OF DATA FILE ARE MISSING. INTENSITY VALUES SET TO ZERO. FORMAT(1X,G15.8).
#
##Wavelength (nm)	Absorbance (/meter)
260	0.0309733
260.1	0.0273171
260.2	0.0304588
260.3	0.0297863
260.4	0.0302556
260.5	0.0319369
260.6	0.0326445
260.7	0.0329682
260.8	0.0339255
260.9	0.0344713
261	0.0332706
261.1	0.0328001
261.2	0.0325868
261.3	0.031568
261.4	0.0301853
261.5	0.0299181
261.6	0.029238
261.7	0.0282443
261.8	0.0288215
261.9	0.0296282
262	0.029834
262.1	0.0299733
262.2	0.0309093
262.3	0.0309745
262.4	0.0306031
262.5	0.0298792
262.6	0.0288779
262.7	0.0289871
262.8	0.0289419
262.9	0.028824
263	0.028908
263.1	0.0286345
263.2	0.0287851
263.3	0.0284953
263.4	0.02876
263.5	0.0284777
263.6	0.0285254
263.7	0.0269771
263.8	0.0264388
263.9	0.0265329
264	0.0274639
264.1	0.0276634
264.2	0.0284426
264.3	0.0285153
264.4	0.0282556
264.5	0.0286358
264.6	0.0296044
264.7	0.0293924
264.8	0.0302418
264.9	0.0303221
265	0.029297
265.1	0.0276872
265.2	0.0273798
265.3	0.0260373
265.4	0.0252469
265.5	0.0246546
265.6	0.0256421
265.7	0.0266446
265.8	0.0272155
265.9	0.0277274
266	0.0280875
266.1	0.0278265
266.2	0.0267776
266.3	0.0267199
266.4	0.0261427
266.5	0.0254326
266.6	0.0248567
266.7	0.0243887
266.8	0.0242356
266.9	0.0242682
267	0.0246534
267.1	0.025617
267.2	0.0265994
267.3	0.0269206
267.4	0.0275567
267.5	0.0278403
267.6	0.0281703
267.7	0.0273033
267.8	0.0267763
267.9	0.0269005
268	0.0284702
268.1	0.0289545
268.2	0.0300398
268.3	0.0305793
268.4	0.0306997
268.5	0.0292619
268.6	0.0280536
268.7	0.0275705
268.8	0.0279909
268.9	0.0288579
269	0.0299344
269.1	0.0310573
269.2	0.0318202
269.3	0.031696
269.4	0.0314375
269.5	0.0311
269.6	0.0312242
269.7	0.0311615
269.8	0.0309896
269.9	0.0310448
270	0.0310887
270.1	0.0312455
270.2	0.0318603
270.3	0.0333848
270.4	0.034302
270.5	0.0350422
270.6	0.0354588
270.7	0.0359469
270.8	0.036258
270.9	0.0376884
271	0.038184
271.1	0.038667
271.2	0.0388891
271.3	0.0397122
271.4	0.0399104
271.5	0.0407297
271.6	0.0407423
271.7	0.0423822
271.8	0.0439493
271.9	0.0463608
272	0.0488363
272.1	0.0519203
272.2	0.0534335
272.3	0.0547622
272.4	0.0543168
272.5	0.05584
272.6	0.0572339
272.7	0.0599503
272.8	0.0626504
272.9	0.0646943
273	0.065752
273.1	0.0675989
273.2	0.0695951
273.3	0.0700844
273.4	0.0726402
273.5	0.0759802
273.6	0.0790279
273.7	0.0823352
273.8	0.0866702
273.9	0.0900967
274	0.0925471
274.1	0.0953539
274.2	0.0974906
274.3	0.101607
274.4	0.107434
274.5	0.114581
274.6	0.121466
274.7	0.126372
274.8	0.131592
274.9	0.136021
275	0.14119
275.1	0.147363
275.2	0.155092
275.3	0.161479
275.4	0.167865
275.5	0.172419
275.6	0.177175
275.7	0.184276
275.8	0.193473
275.9	0.202858
276	0.213473
276.1	0.223209
276.2	0.233397
276.3	0.240976
276.4	0.249244
276.5	0.258127
276.6	0.269457
276.7	0.278805
276.8	0.290988
276.9	0.299908
277	0.311238
277.1	0.321577
277.2	0.332054
277.3	0.342781
277.4	0.357612
277.5	0.369155
277.6	0.378816
277.7	0.388627
277.8	0.394725
277.9	0.403094
278	0.413935
278.1	0.427962
278.2	0.442228
278.3	0.456418
278.4	0.472027
278.5	0.481813
278.6	0.490496
278.7	0.505201
278.8	0.517459
278.9	0.525175
279	0.536154
279.1	0.544723
279.2	0.550031
279.3	0.565049
279.4	0.578299
279.5	0.59471
279.6	0.611623
279.7	0.614735
279.8	0
279.9	0
280	0
280.1	0
280.2	0
280.3	0.642539
280.4	0.668913
280.5	0.673455
280.6	0.69299
280.7	0.7125
280.8	0.723742
280.9	0.735524
281	0.747393
281.1	0.748447
281.2	0.741697
281.3	0.746089
281.4	0.760957
281.5	0.773892
281.6	0.780178
281.7	0.793102
281.8	0.793792
281.9	0.790755
282	0.799752
282.1	0.809224
282.2	0.811709
282.3	0.8195
282.4	0.82487
282.5	0.832361
282.6	0.837166
282.7	0.847894
282.8	0.858873
282.9	0.875071
283	0.880742
283.1	0.888897
283.2	0.895371
283.3	0.902711
283.4	0.896212
283.5	0.89364
283.6	0.90443
283.7	0.91039
283.8	0.919926
283.9	0.931419
284	0.935948
284.1	0.933401
284.2	0.94315
284.3	0.94852
284.4	0.949511
284.5	0.954944
284.6	0.953827
284.7	0.948871
284.8	0.949938
284.9	0.963727
285	0.969724
285.1	0.973488
285.2	0.977892
285.3	0.981744
285.4	0.977754
285.5	0.983375
285.6	0.996675
285.7	1
285.8	0.99118
285.9	0.987328
286	0.977917
286.1	0.967892
286.2	0.959147
286.3	0.958332
286.4	0.966939
286.5	0.974806
286.6	0.977805
286.7	0.981544
286.8	0.985533
286.9	0.982522
287	0.978055
287.1	0.974178
287.2	0.976035
287.3	0.975345
287.4	0.969147
287.5	0.964279
287.6	0.956801
287.7	0.950038
287.8	0.946011
287.9	0.945509
288	0.948257
288.1	0.951092
288.2	0.953576
288.3	0.956613
288.4	0.951117
288.5	0.937943
288.6	0.935283
288.7	0.926814
288.8	0.920791
288.9	0.919261
289	0.92236
289.1	0.915685
289.2	0.921306
289.3	0.913389
289.4	0.90433
289.5	0.899449
289.6	0.890754
289.7	0.871319
289.8	0.859362
289.9	0.845824
290	0.825799
290.1	0.820027
290.2	0.82068
290.3	0.819312
290.4	0.81536
290.5	0.815147
290.6	0.8094
290.7	0.797757
290.8	0.781747
290.9	0.773692
291	0.765223
291.1	0.75777
291.2	0.750417
291.3	0.746678
291.4	0.7391
291.5	0.733404
291.6	0.725875
291.7	0.715989
291.8	0.715537
291.9	0.713065
292	0.706566
292.1	0.697432
292.2	0.694722
292.3	0.679904
292.4	0.671748
292.5	0.669289
292.6	0.662664
292.7	0.655851
292.8	0.652765
292.9	0.644396
293	0.631862
293.1	0.629867
293.2	0.620482
293.3	0.61146
293.4	0.604284
293.5	0.599378
293.6	0.588939
293.7	0.580081
293.8	0.571549
293.9	0.562578
294	0.555238
294.1	0.549127
294.2	0.54638
294.3	0.54377
294.4	0.541336
294.5	0.538651
294.6	0.534786
294.7	0.529404
294.8	0.5251
294.9	0.523682
295	0.518237
295.1	0.518011
295.2	0.516054
295.3	0.510232
295.4	0.502741
295.5	0.496405
295.6	0.489203
295.7	0.483745
295.8	0.480998
295.9	0.479643
296	0.47815
296.1	0.47416
296.2	0.472328
296.3	0.469304
296.4	0.466945
296.5	0.463545
296.6	0.461387
296.7	0.459768
296.8	0.457999
296.9	0.454975
297	0.45273
297.1	0.449856
297.2	0.44623
297.3	0.442265
297.4	0.438451
297.5	0.436205
297.6	0.433382
297.7	0.430973
297.8	0.431061
297.9	0.429819
298	0.430446
298.1	0.428916
298.2	0.425315
298.3	0.419305
298.4	0.415515
298.5	0.410472
298.6	0.410622
298.7	0.410823
298.8	0.411124
298.9	0.409468
299	0.407335
299.1	0.401275
299.2	0.398251
299.3	0.396557
299.4	0.398991
299.5	0.3981
299.6	0.397486
299.7	0.394838
299.8	0.391902
299.9	0.388163
300	0.386444
300.1	0.384249
300.2	0.382279
300.3	0.381551
300.4	0.377611
300.5	0.375616
300.6	0.376357
300.7	0.376771
300.8	0.374914
300.9	0.372567
301	0.369456
301.1	0.368138
301.2	0.367775
301.3	0.369029
301.4	0.369155
301.5	0.370911
301.6	0.370886
301.7	0.372254
301.8	0.374437
301.9	0.375817
302	0.374424
302.1	0.37593
302.2	0.374136
302.3	0.368101
302.4	0.366633
302.5	0.36785
302.6	0.366708
302.7	0.367323
302.8	0.36869
302.9	0.370271
303	0.370573
303.1	0.371024
303.2	0.370409
303.3	0.373596
303.4	0.37253
303.5	0.372329
303.6	0.373734
303.7	0.376507
303.8	0.375014
303.9	0.375403
304	0.376997
304.1	0.373923
304.2	0.371739
304.3	0.371589
304.4	0.371426
304.5	0.369594
304.6	0.372141
304.7	0.371476
304.8	0.371426
304.9	0.372078
305	0.372467
305.1	0.371049
305.2	0.370158
305.3	0.368603
305.4	0.367887
305.5	0.367059
305.6	0.366143
305.7	0.367034
305.8	0.367348
305.9	0.367335
306	0.36716
306.1	0.365817
306.2	0.365215
306.3	0.366244
306.4	0.366608
306.5	0.366758
306.6	0.365704
306.7	0.364199
306.8	0.36125
306.9	0.358816
307	0.354977
307.1	0.352593
307.2	0.351037
307.3	0.350698
307.4	0.350686
307.5	0.351213
307.6	0.351551
307.7	0.352103
307.8	0.351426
307.9	0.349168
308	0.348164
308.1	0.348026
308.2	0.34578
308.3	0.34573
308.4	0.344513
308.5	0.342631
308.6	0.341664
308.7	0.340774
308.8	0.337649
308.9	0.335529
309	0.334663
309.1	0.333522
309.2	0.332681
309.3	0.331727
309.4	0.332919
309.5	0.332806
309.6	0.332242
309.7	0.331113
309.8	0.331062
309.9	0.329582
310	0.327461
310.1	0.324513
310.2	0.323559
310.3	0.321138
310.4	0.318716
310.5	0.318566
310.6	0.318377
310.7	0.317512
310.8	0.315655
310.9	0.31445
311	0.311928
311.1	0.309457
311.2	0.305153
311.3	0.302568
311.4	0.30026
311.5	0.297838
311.6	0.295605
311.7	0.296207
311.8	0.295304
311.9	0.292932
312	0.290962
312.1	0.288541
312.2	0.283397
312.3	0.282594
312.4	0.28154
312.5	0.280624
312.6	0.279871
312.7	0.280172
312.8	0.276872
312.9	0.274463
313	0.271791
313.1	0.27021
313.2	0.26755
313.3	0.265103
313.4	0.262682
313.5	0.260423
313.6	0.257048
313.7	0.254978
313.8	0.254576
313.9	0.253046
314	0.251189
314.1	0.250097
314.2	0.248341
314.3	0.245216
314.4	0.243247
314.5	0.242306
314.6	0.240486
314.7	0.239257
314.8	0.238378
314.9	0.237964
315	0.235731
315.1	0.234025
315.2	0.230875
315.3	0.228178
315.4	0.223937
315.5	0.220788
315.6	0.21794
315.7	0.215531
315.8	0.212444
315.9	0.210261
316	0.208329
316.1	0.206133
316.2	0.204188
316.3	0.202946
316.4	0.202156
316.5	0.199383
316.6	0.197275
316.7	0.195217
316.8	0.192557
316.9	0.190098
317	0.188354
317.1	0.186648
317.2	0.184276
317.3	0.182557
317.4	0.179772
317.5	0.178254
317.6	0.175857
317.7	0.174088
317.8	0.172106
317.9	0.170575
318	0.16848
318.1	0.166259
318.2	0.164515
318.3	0.161943
318.4	0.159546
318.5	0.157815
318.6	0.156121
318.7	0.153674
318.8	0.152031
318.9	0.150676
319	0.148442
319.1	0.145732
319.2	0.144114
319.3	0.136761
319.4	0.127614
319.5	0.124081
319.6	0.122736
319.7	0.121455
319.8	0.125099
319.9	0.130023
320	0.12966
320.1	0.12779
320.2	0.125758
320.3	0.12463
320.4	0.12354
320.5	0.122084
320.6	0.120858
320.7	0.119148
320.8	0.116961
320.9	0.114873
321	0.113544
321.1	0.1116
321.2	0.110038
321.3	0.109369
321.4	0.108388
321.5	0.106636
321.6	0.10489
321.7	0.10329
321.8	0.10112
321.9	0.0990565
322	0.0982447
322.1	0.097325
322.2	0.095665
322.3	0.0943677
322.4	0.0929988
322.5	0.0907517
322.6	0.0890742
322.7	0.0882348
322.8	0.0866175
322.9	0.0853226
323	0.084157
323.1	0.0841871
323.2	0.0823465
323.3	0.0806289
323.4	0.0796414
323.5	0.0784921
323.6	0.0760354
323.7	0.0743617
323.8	0.0730794
323.9	0.0720443
324	0.0709364
324.1	0.0701208
324.2	0.0697482
324.3	0.0696252
324.4	0.069299
324.5	0.0688486
324.6	0.0681045
324.7	0.0676378
324.8	0.0670556
324.9	0.0653166
325	0.0639804
325.1	0.0633129
325.2	0.0625689
325.3	0.0609679
325.4	0.0602238
325.5	0.0592138
325.6	0.0583907
325.7	0.0568663
325.8	0.0562314
325.9	0.055047
326	0.0542666
326.1	0.0529491
326.2	0.0520006
326.3	0.0511236
326.4	0.0508538
326.5	0.0505677
326.6	0.0498388
326.7	0.0494021
326.8	0.0487221
326.9	0.0481324
327	0.0470521
327.1	0.0463319
327.2	0.045544
327.3	0.0449091
327.4	0.044007
327.5	0.0432429
327.6	0.042741
327.7	0.0422881
327.8	0.0418226
327.9	0.0416419
328	0.0416958
328.1	0.0410748
328.2	0.0406896
328.3	0.0402141
328.4	0.0394562
328.5	0.0382756
328.6	0.0372718
328.7	0.0361576
328.8	0.0355742
328.9	0.035061
329	0.0352681
329.1	0.0353245
329.2	0.0351451
329.3	0.0345077
329.4	0.0343747
329.5	0.0334889
329.6	0.0335353
329.7	0.0335115
329.8	0.0336357
329.9	0.0325479
330	0.0319118
330.1	0.0308553
330.2	0.0301075
330.3	0.029297
330.4	0.029361
330.5	0.0291088
330.6	0.0282468
330.7	0.0276684
330.8	0.0272406
330.9	0.0267675
331	0.0267525
331.1	0.0272468
331.2	0.0272719
331.3	0.0269394
331.4	0.026568
331.5	0.02576
331.6	0.0250737
331.7	0.0247249
331.8	0.0248027
331.9	0.024617
332	0.0244301
332.1	0.0242143
332.2	0.0236496
332.3	0.0228266
332.4	0.0223485
332.5	0.0222318
332.6	0.0221729
332.7	0.0219257
332.8	0.0220286
332.9	0.0217776
333	0.0212231
333.1	0.020794
333.2	0.0205832
333.3	0.0198555
333.4	0.0191767
333.5	0.0189659
333.6	0.0184653
333.7	0.0182382
333.8	0.0183937
333.9	0.0184063
334	0.018139
334.1	0.0181403
334.2	0.018188
334.3	0.0175255
334.4	0.0173386
334.5	0.0173636
334.6	0.0173536
334.7	0.0169069
334.8	0.016784
334.9	0.0165356
335	0.0164628
335.1	0.0160776
335.2	0.0158392
335.3	0.0158743
335.4	0.0158116
335.5	0.0153662
335.6	0.015247
335.7	0.0151353
335.8	0.014838
335.9	0.0146949
336	0.0148354
336.1	0.0148668
336.2	0.0147426
336.3	0.0148706
336.4	0.0147991
336.5	0.0140513
336.6	0.0136422
336.7	0.0134904
336.8	0.0133486
336.9	0.0130814
337	0.0134365
337.1	0.0133223
337.2	0.0132834
337.3	0.0130036
337.4	0.0127778
337.5	0.0123993
337.6	0.0124184
337.7	0.0121061
337.8	0.0122455
337.9	0.0125233
338	0.0126711
338.1	0.0123997
338.2	0.0126335
338.3	0.0125296
338.4	0.0122877
338.5	0.0120541
338.6	0.0120985
338.7	0.0119838
338.8	0.0114814
338.9	0.0111942
339	0.0109694
339.1	0.0109388
339.2	0.0107734
339.3	0.010898
339.4	0.0106927
339.5	0.0107137
339.6	0.0104624
339.7	0.0099251
339.8	0.00945107
339.9	0.00925697
340	0.00897755
340.1	0.00885949
340.2	0.00912686
340.3	0.00944279
340.4	0.00982811
340.5	0.0100464
340.6	0.00986048
340.7	0.00960502
340.8	0.00959386
340.9	0.00941255
341	0.00938771
341.1	0.00922285
341.2	0.00896877
341.3	0.00888508
341.4	0.00885008
341.5	0.0085674
341.6	0.00868396
341.7	0.0088763
341.8	0.00865046
341.9	0.00824971
342	0.00833703
342.1	0.00797581
342.2	0.00773867
342.3	0.00796113
342.4	0.00811972
342.5	0.00796991
342.6	0.0082733
342.7	0.00853239
342.8	0.00823252
342.9	0.00800517
343	0.00790429
343.1	0.00799513
343.2	0.00764846
343.3	0.00745624
343.4	0.00769212
343.5	0.00743818
343.6	0.00705035
343.7	0.00732751
343.8	0.00732939
343.9	0.00719339
344	0.00707319
344.1	0.00685725
344.2	0.0063959
344.3	0.00603593
344.4	0.00572828
344.5	0.00575777
344.6	0.00610783
344.7	0.00604083
344.8	0.0062131
344.9	0.00633769
345	0.00647922
345.1	0.00627282
345.2	0.00636266
345.3	0.00648311
345.4	0.0064407
345.5	0.00618574
345.6	0.00599026
345.7	0.00603355
345.8	0.0056717
345.9	0.00560307
346	0.00575639
346.1	0.00598349
346.2	0.0059141
346.3	0.00604622
346.4	0.00583456
346.5	0.00563744
346.6	0.005485
346.7	0.00552929
346.8	0.00549855
346.9	0.0056865
347	0.00567935
347.1	0.00573857
347.2	0.00556154
347.3	0.00564949
347.4	0.00543669
347.5	0.00528199
347.6	0.00490069
347.7	0.00479128
347.8	0.00463896
347.9	0.00485452
348	0.00493695
348.1	0.00507472
348.2	0.00507145
348.3	0.0049441
348.4	0.00484674
348.5	0.00494034
348.6	0.00502641
348.7	0.0051495
348.8	0.0053254
348.9	0.004951
349	0.0047815
349.1	0.0046692
349.2	0.0044145
349.3	0.00414763
349.4	0.00419681
349.5	0.00396796
349.6	0.00376808
349.7	0.00360133
349.8	0.00345617
349.9	0.00368578
350	0.00414022
350.1	0.00424926
350.2	0.00449706
350.3	0.0047096
350.4	0.00445264
350.5	0.00405779
350.6	0.00381752
350.7	0.00355943
350.8	0.00330034
350.9	0.00293836
351	0.00271527
351.1	0.00260009
351.2	0.00251653
351.3	0.00252331
351.4	0.00291176
351.5	0.00312393
351.6	0.00337411
351.7	0.00356244
351.8	0.00370773
351.9	0.00342718
352	0.00341112
352.1	0.00325517
352.2	0.00318666
352.3	0.00297261
352.4	0.00286057
352.5	0.00280461
352.6	0.00283786
352.7	0.00269156
352.8	0.00271013
352.9	0.0027819
353	0.00275781
353.1	0.00268491
353.2	0.00248341
353.3	0.00244075
353.4	0.00268328
353.5	0.0027016
353.6	0.00281753
353.7	0.00312882
353.8	0.00298466
353.9	0.00266195
354	0.00259118
354.1	0.00283183
354.2	0.00280423
354.3	0.00305203
354.4	0.00303284
354.5	0.00288566
354.6	0.00251666
354.7	0.00249344
354.8	0.00212707
354.9	0.00220951
355	0.00214263
355.1	0.00230562
355.2	0.00218554
355.3	0.00246032
355.4	0.00248391
355.5	0.00264589
355.6	0.00244752
355.7	0.0024292
355.8	0.00239043
355.9	0.00225029
356	0.0017922
356.1	0.00167978
356.2	0.00157815
356.3	0.0016518
356.4	0.00177777
356.5	0.00207162
356.6	0.00205167
356.7	0.00203122
356.8	0.00207764
356.9	0.00206208
357	0.00228353
357.1	0.00239156
357.2	0.00260235
357.3	0.00241854
357.4	0.0023479
357.5	0.00207463
357.6	0.0018252
357.7	0.00142621
357.8	0.00147915
357.9	0.0012478
358	0.00114756
358.1	0.0011932
358.2	0.00141592
358.3	0.00114369
358.4	0.001059
358.5	0.0011027
358.6	0.000919211
358.7	0.000726741
358.8	0.00075043
358.9	0.000627131
359	0.00046618
359.1	0.00063476
359.2	0.000843942
359.3	0.00073102
359.4	0.000737005
359.5	0.000421287
359.6	0.000168078
359.7	0
359.8	0
359.9	0
360	0
360.1	0
360.2	0.000248328
360.3	0.000301878
360.4	0.000474511
360.5	0.000769175
360.6	0.000890328
360.7	0.000843227
360.8	0.000782613
360.9	0.000758698
361	0.000843503
361.1	0.000867342
361.2	0.000798785
361.3	0.000747895
361.4	0.000586592
361.5	0.000269206
361.6	0
361.7	0
361.8	0
361.9	0
362	0
362.1	0
362.2	0
362.3	0
362.4	0
362.5	0
362.6	0
362.7	2.87625e-05
362.8	0
362.9	0
363	0
363.1	0
363.2	0
363.3	0
363.4	0
363.5	0
363.6	0
363.7	0
363.8	0
363.9	0
364	0
364.1	0
364.2	0
364.3	0
364.4	0
364.5	0
364.6	0
364.7	0
364.8	0
364.9	0
365	0.000158028
365.1	0
365.2	0
365.3	0
365.4	0.000100487
365.5	0.00033913
365.6	0.000475101
365.7	0.000302844
365.8	0.000115449
365.9	0
366	0
366.1	0
366.2	0
366.3	0
366.4	0
366.5	0
366.6	0
366.7	0
366.8	0
366.9	0
367	0
367.1	0
367.2	0
367.3	0
367.4	0
367.5	0
367.6	0
367.7	0
367.8	0
367.9	0
368	0
368.1	0
368.2	0
368.3	0
368.4	0
368.5	0
368.6	0
368.7	0
368.8	0
368.9	0
369	0
369.1	0
369.2	0
369.3	0
369.4	0
369.5	0
369.6	0
369.7	0
369.8	0
369.9	0
370	0
370.1	0
370.2	0
370.3	0
370.4	0
370.5	0
370.6	0
370.7	0
370.8	0
370.9	0
371	0
371.1	0
371.2	0
371.3	0
371.4	0
371.5	0
371.6	0
371.7	0
371.8	0
371.9	0
372	0
372.1	0
372.2	0
372.3	0
372.4	0
372.5	0
372.6	0
372.7	0
372.8	0
372.9	0
373	0
373.1	0
373.2	0
373.3	0
373.4	0
373.5	0
373.6	0
373.7	0
373.8	0
373.9	0
374	0
374.1	0
374.2	0
374.3	0
374.4	0
374.5	0
374.6	0
374.7	0
374.8	0
374.9	0
375	0
375.1	0
375.2	0
375.3	0
375.4	0
375.5	0
375.6	0
375.7	0
375.8	0
375.9	0
376	0
376.1	0
376.2	0
376.3	0
376.4	0
376.5	0
376.6	0
376.7	0
376.8	0
376.9	0
377	0
377.1	0
377.2	0
377.3	0
377.4	0
377.5	0
377.6	0
377.7	0
377.8	0
377.9	0
378	0
378.1	0
378.2	0
378.3	0
378.4	0
378.5	0
378.6	0
378.7	0
378.8	0
378.9	0
379	0
379.1	0
379.2	0
379.3	0
379.4	0
379.5	0
379.6	0
379.7	0
379.8	0
379.9	0
380	0
380.1	0
380.2	0
380.3	0
380.4	0
380.5	0
380.6	0
380.7	0
380.8	0
380.9	0
381	0
381.1	0
381.2	0
381.3	0
381.4	0
381.5	0
381.6	0
381.7	0
381.8	0
381.9	0
382	0
382.1	0
382.2	0
382.3	0
382.4	0
382.5	0
382.6	0
382.7	0
382.8	0
382.9	0
383	0
383.1	0
383.2	0
383.3	0
383.4	0
383.5	0
383.6	0
383.7	0
383.8	0
383.9	0
384	0
384.1	0
384.2	0
384.3	0
384.4	0
384.5	0
384.6	0
384.7	0
384.8	0
384.9	0
385	0
385.1	0
385.2	0
385.3	0
385.4	0
385.5	0
385.6	0
385.7	0
385.8	0
385.9	0
386	0
386.1	0
386.2	0
386.3	0
386.4	0
386.5	0
386.6	0
386.7	0
386.8	0
386.9	0
387	0
387.1	0
387.2	0
387.3	0
387.4	0
387.5	0
387.6	0
387.7	0
387.8	0
387.9	0
388	0
388.1	0
388.2	0
388.3	0
388.4	0
388.5	0
388.6	0
388.7	0
388.8	0
388.9	0
389	0
389.1	0
389.2	0
389.3	0
389.4	0
389.5	0
389.6	0
389.7	0
389.8	0
389.9	0
390	0
390.1	0
390.2	0
390.3	0
390.4	0
390.5	0
390.6	0
390.7	0
390.8	0
390.9	0
391	0
391.1	0
391.2	0
391.3	0
391.4	0
391.5	0
391.6	0
391.7	0
391.8	0
391.9	0
392	0
392.1	0
392.2	0
392.3	0
392.4	0
392.5	0
392.6	0
392.7	0
392.8	0
392.9	0
393	0
393.1	0
393.2	0
393.3	0
393.4	0
393.5	0
393.6	0
393.7	0
393.8	0
393.9	0
394	0
394.1	0
394.2	0
394.3	0
394.4	0
394.5	0
394.6	0
394.7	0
394.8	0
394.9	0
395	0
395.1	0
395.2	0
395.3	0
395.4	0
395.5	0
395.6	0
395.7	0
395.8	0
395.9	0
396	0
396.1	0
396.2	0
396.3	0
396.4	0
396.5	0
396.6	0
396.7	0
396.8	0
396.9	0
397	0
397.1	0
397.2	0
397.3	0
397.4	0
397.5	0
397.6	0
397.7	0
397.8	0
397.9	0
398	0
398.1	0
398.2	0
398.3	0
398.4	0
398.5	0
398.6	0
398.7	0
398.8	0
398.9	0
399	0
399.1	0
399.2	0
399.3	0
399.4	0
399.5	0
399.6	0