File: lasermedia/data/008-ems.txt
# Optical emission spectrum of Ce:LiCaALF6 (Ce:LiCaAlF6)
# assuming unity concentration per meter.  This data was part of the NASA
# Laser Spectra Database found on the web until December of 2005 which
# was created by Pat Cross working at NASA Langley Research Center, Internal
# Operations Group, Aerospace Electronics Systems Division, Remote Sensing.
#
# The spectra was collected by GA on 15 August 1994 and was
# annotated on  6 April 1995.  The sample name was "" was a 9.990
# long piece of :.
# The incident light was unpolarized.
#
# Spectra were recorded from 260nm to 399.6nm
# every 0.1nm at room temperature.  The
# excitation wavelength was unknown.
#
# SLIT WIDTH IS 1500 MICRONS, SAMPLE IS RECTANGULAR SHAPE. C-AXIS IS CUT PERP. TO LONG AXIS OF CRYSTAL. PUMP LIGHT IS ALONG A(=B & LONG AXIS ) OF CRYSTAL. POLARIZER AFTER SAMPLE IS PLACED PARALLEL TO THE C-AXIS (P-POL). CONCENTRATION IS ATOMIC PERCENT. 41 INTENSITY VALUES ARE MISSING FROM MIDDLE OF DATA FILE. INTENSITY VALUES SET TO ZERO. FORMAT(1X,G15.8).
#
##Wavelength (nm)	Absorbance (/meter)
260	0.00918293
260.1	0.0019214
260.2	0.00812782
260.3	0.0086911
260.4	0.009796
260.5	0.0108711
260.6	0.0120884
260.7	0.0134023
260.8	0.0155322
260.9	0.0166354
261	0.0167476
261.1	0.0174746
261.2	0.0176264
261.3	0.0173306
261.4	0.0174833
261.5	0.016705
261.6	0.0146553
261.7	0.014227
261.8	0.0129904
261.9	0.0135087
262	0.0128145
262.1	0.0125089
262.2	0.0115537
262.3	0.0121241
262.4	0.0131035
262.5	0.0157807
262.6	0.0182026
262.7	0.0205733
262.8	0.0218979
262.9	0.0208247
263	0.0189423
263.1	0.0181108
263.2	0.0163908
263.3	0.0137359
263.4	0.0138557
263.5	0.0148332
263.6	0.0149512
263.7	0.0154182
263.8	0.0169854
263.9	0.0178971
264	0.018251
264.1	0.0181301
264.2	0.0168317
264.3	0.0152151
264.4	0.012683
264.5	0.0121909
264.6	0.0128193
264.7	0.0138084
264.8	0.0139147
264.9	0.014664
265	0.0144368
265.1	0.0139863
265.2	0.0138915
265.3	0.0139505
265.4	0.0142841
265.5	0.0137794
265.6	0.0148912
265.7	0.0165648
265.8	0.0177192
265.9	0.0180886
266	0.0185265
266.1	0.0183593
266.2	0.0168404
266.3	0.0166799
266.4	0.0167592
266.5	0.0162738
266.6	0.0150778
266.7	0.0147568
266.8	0.0146969
266.9	0.015276
267	0.0161181
267.1	0.0175017
267.2	0.018398
267.3	0.0145876
267.4	0.0100319
267.5	0.0080233
267.6	0.00663637
267.7	0.00538819
267.8	0.0083293
267.9	0.012156
268	0.0149396
268.1	0.0157333
268.2	0.0174456
268.3	0.0178391
268.4	0.0171904
268.5	0.0156193
268.6	0.0158465
268.7	0.0151001
268.8	0.0157082
268.9	0.0173731
269	0.0191057
269.1	0.0194508
269.2	0.0206052
269.3	0.0211399
269.4	0.0211128
269.5	0.0195446
269.6	0.0176999
269.7	0.0161017
269.8	0.0158648
269.9	0.0158291
270	0.018366
270.1	0.0196374
270.2	0.0200474
270.3	0.0203171
270.4	0.0209804
270.5	0.0206787
270.6	0.0219018
270.7	0.0235135
270.8	0.0247568
270.9	0.0258455
271	0.0268046
271.1	0.027201
271.2	0.0274901
271.3	0.0270956
271.4	0.0268742
271.5	0.0261936
271.6	0.0261791
271.7	0.0289461
271.8	0.0313458
271.9	0.0328145
272	0.0354907
272.1	0.0392449
272.2	0.0393967
272.3	0.0404631
272.4	0.0411148
272.5	0.0414744
272.6	0.0422257
272.7	0.0431422
272.8	0.0425525
272.9	0.0423426
273	0.04245
273.1	0.0429498
273.2	0.0452896
273.3	0.049154
273.4	0.0547897
273.5	0.0570163
273.6	0.0566325
273.7	0.0562554
273.8	0.0563463
273.9	0.0558552
274	0.0584154
274.1	0.0620758
274.2	0.0638635
274.3	0.0655951
274.4	0.0676119
274.5	0.0699362
274.6	0.0721531
274.7	0.0756976
274.8	0.0801189
274.9	0.0825766
275	0.0842115
275.1	0.0868094
275.2	0.0897332
275.3	0.0898463
275.4	0.0849222
275.5	0.0801286
275.6	0.0780567
275.7	0.0784521
275.8	0.0814744
275.9	0.0915005
276	0.10118
276.1	0.108131
276.2	0.114493
276.3	0.118457
276.4	0.120352
276.5	0.122759
276.6	0.12769
276.7	0.131006
276.8	0.135618
276.9	0.140307
277	0.147375
277.1	0.151349
277.2	0.15363
277.3	0.157962
277.4	0.164449
277.5	0.166731
277.6	0.171198
277.7	0.177289
277.8	0.179716
277.9	0.182742
278	0.187557
278.1	0.192111
278.2	0.199362
278.3	0.20786
278.4	0.212917
278.5	0.216997
278.6	0.221203
278.7	0.225138
278.8	0.22683
278.9	0.230871
279	0.232544
279.1	0.233598
279.2	0.23616
279.3	0.246534
279.4	0.257952
279.5	0.271749
279.6	0.280818
279.7	0.285323
279.8	0.280141
279.9	0.277656
280	0.279532
280.1	0.284318
280.2	0.286029
280.3	0.295117
280.4	0.303336
280.5	0.310345
280.6	0.317181
280.7	0.329005
280.8	0.340317
280.9	0.348149
281	0.352577
281.1	0.35568
281.2	0.357769
281.3	0.364962
281.4	0.370995
281.5	0.376061
281.6	0.384743
281.7	0.390322
281.8	0.391821
281.9	0.39825
282	0.407077
282.1	0.414058
282.2	0.423281
282.3	0.434178
282.4	0.441294
282.5	0.450314
282.6	0.460746
282.7	0.474156
282.8	0.483196
282.9	0.489278
283	0.499101
283.1	0.505888
283.2	0.51138
283.3	0.520516
283.4	0.531509
283.5	0.539418
283.6	0.552809
283.7	0.565416
283.8	0.577318
283.9	0.595398
284	0.605095
284.1	0.615614
284.2	0.628483
284.3	0.638577
284.4	0.642019
284.5	0.647191
284.6	0.652606
284.7	0.658474
284.8	0.664314
284.9	0.679339
285	0.69739
285.1	0.71078
285.2	0.727652
285.3	0.740104
285.4	0.7452
285.5	0.754887
285.6	0.767166
285.7	0.779899
285.8	0.794141
285.9	0.806516
286	0.809755
286.1	0.816659
286.2	0.814184
286.3	0.823349
286.4	0.836343
286.5	0.847646
286.6	0.854365
286.7	0.861104
286.8	0.860234
286.9	0.860611
287	0.863222
287.1	0.866006
287.2	0.867862
287.3	0.880122
287.4	0.889684
287.5	0.90087
287.6	0.910732
287.7	0.922498
287.8	0.929527
287.9	0.93294
288	0.943759
288.1	0.953282
288.2	0.965706
288.3	0.965175
288.4	0.971478
288.5	0.977859
288.6	0.982404
288.7	0.987818
288.8	0.996423
288.9	1
289	0.992169
289.1	0.9796
289.2	0.970802
289.3	0.972832
289.4	0.974185
289.5	0.976022
289.6	0.988011
289.7	0.991879
289.8	0.986754
289.9	0.988495
290	0.990525
290.1	0.993619
290.2	0.987528
290.3	0.982307
290.4	0.975539
290.5	0.977473
290.6	0.971575
290.7	0.97844
290.8	0.990138
290.9	0.992265
291	0.994199
291.1	1
291.2	0.993426
291.3	0.979213
291.4	0.976603
291.5	0.971478
291.6	0.966228
291.7	0.972542
291.8	0.978053
291.9	0.975056
292	0.971865
292.1	0.968481
292.2	0.957894
292.3	0.948526
292.4	0.93819
292.5	0.93119
292.6	0.916233
292.7	0.909398
292.8	0.903684
292.9	0.897747
293	0.887866
293.1	0.889123
293.2	0.885062
293.3	0.884714
293.4	0.889684
293.5	0.896626
293.6	0.88863
293.7	0.880721
293.8	0.873112
293.9	0.860611
294	0.849038
294.1	0.838074
294.2	0.82944
294.3	0.818389
294.4	0.818505
294.5	0.817074
294.6	0.820391
294.7	0.823978
294.8	0.827594
294.9	0.821145
295	0.815653
295.1	0.818012
295.2	0.820052
295.3	0.818032
295.4	0.817964
295.5	0.814193
295.6	0.804012
295.7	0.789529
295.8	0.779957
295.9	0.768085
296	0.75684
296.1	0.747549
296.2	0.741042
296.3	0.735754
296.4	0.731828
296.5	0.71051
296.6	0.693745
296.7	0.687363
296.8	0.678488
296.9	0.674427
297	0.686764
297.1	0.699178
297.2	0.698869
297.3	0.693696
297.4	0.68456
297.5	0.680615
297.6	0.676438
297.7	0.673431
297.8	0.67026
297.9	0.669815
298	0.668027
298.1	0.663328
298.2	0.662999
298.3	0.665764
298.4	0.665745
298.5	0.663492
298.6	0.665387
298.7	0.661317
298.8	0.657256
298.9	0.651204
299	0.646669
299.1	0.634816
299.2	0.627487
299.3	0.622373
299.4	0.619375
299.5	0.612395
299.6	0.608054
299.7	0.603539
299.8	0.598182
299.9	0.594702
300	0.594885
300.1	0.601054
300.2	0.601489
300.3	0.606023
300.4	0.605115
300.5	0.603423
300.6	0.599227
300.7	0.599372
300.8	0.599246
300.9	0.602939
301	0.602775
301.1	0.602591
301.2	0.604834
301.3	0.601769
301.4	0
301.5	0
301.6	0
301.7	0
301.8	0
301.9	0
302	0
302.1	0
302.2	0
302.3	0
302.4	0
302.5	0.6032
302.6	0.612859
302.7	0.618322
302.8	0.622208
302.9	0.619704
303	0.614483
303.1	0.615092
303.2	0.617316
303.3	0.622527
303.4	0.624625
303.5	0.62798
303.6	0.6274
303.7	0.626762
303.8	0.623475
303.9	0.625583
304	0.627719
304.1	0.631819
304.2	0.636875
304.3	0.644803
304.4	0.646137
304.5	0.648197
304.6	0.650314
304.7	0.650305
304.8	0.646708
304.9	0.648632
305	0.648052
305.1	0.649328
305.2	0.650044
305.3	0.65424
305.4	0.657914
305.5	0.658629
305.6	0.657885
305.7	0.657536
305.8	0.656744
305.9	0.658813
306	0.658349
306.1	0.658291
306.2	0.659074
306.3	0.659625
306.4	0.654665
306.5	0.656695
306.6	0.656811
306.7	0.655632
306.8	0.650981
306.9	0.650392
307	0.647008
307.1	0.641816
307.2	0.639476
307.3	0.63818
307.4	0.636247
307.5	0.634787
307.6	0.630948
307.7	0.626298
307.8	0.621338
307.9	0.617587
308	0.613371
308.1	0.611583
308.2	0.608634
308.3	0.607174
308.4	0.602378
308.5	0.599826
308.6	0.597854
308.7	0.596751
308.8	0.596626
308.9	0.595611
309	0.59213
309.1	0.588514
309.2	0.585101
309.3	0.58193
309.4	0.57902
309.5	0.576506
309.6	0.573325
309.7	0.569284
309.8	0.565755
309.9	0.566016
310	0.565735
310.1	0.56618
310.2	0.565329
310.3	0.561984
310.4	0.558088
310.5	0.553853
310.6	0.549183
310.7	0.5449
310.8	0.540588
310.9	0.535367
311	0.529431
311.1	0.526685
311.2	0.523069
311.3	0.520584
311.4	0.51721
311.5	0.516059
311.6	0.511805
311.7	0.508363
311.8	0.505105
311.9	0.501673
312	0.497322
312.1	0.492304
312.2	0.488707
312.3	0.484985
312.4	0.480209
312.5	0.474553
312.6	0.472155
312.7	0.468723
312.8	0.464691
312.9	0.461007
313	0.457846
313.1	0.453688
313.2	0.448903
313.3	0.444146
313.4	0.440327
313.5	0.435734
313.6	0.431152
313.7	0.427545
313.8	0.4245
313.9	0.421609
314	0.41924
314.1	0.415605
314.2	0.411418
314.3	0.407019
314.4	0.401595
314.5	0.397012
314.6	0.393039
314.7	0.390187
314.8	0.386561
314.9	0.384705
315	0.380151
315.1	0.37492
315.2	0.369361
315.3	0.365281
315.4	0.360012
315.5	0.357536
315.6	0.355003
315.7	0.352209
315.8	0.34752
315.9	0.343672
316	0.338915
316.1	0.334487
316.2	0.33003
316.3	0.327961
316.4	0.325302
316.5	0.323494
316.6	0.321812
316.7	0.318515
316.8	0.313574
316.9	0.309456
317	0.30438
317.1	0.299923
317.2	0.295611
317.3	0.290448
317.4	0.28455
317.5	0.280219
317.6	0.275897
317.7	0.2729
317.8	0.269371
317.9	0.266277
318	0.262815
318.1	0.26005
318.2	0.256396
318.3	0.25424
318.4	0.25161
318.5	0.247704
318.6	0.243372
318.7	0.241603
318.8	0.238944
318.9	0.236053
319	0.232998
319.1	0.23003
319.2	0.226269
319.3	0.22333
319.4	0.220584
319.5	0.219491
319.6	0.218032
319.7	0.21603
319.8	0.213168
319.9	0.209668
320	0.205762
320.1	0.202262
320.2	0.198927
320.3	0.196887
320.4	0.195466
320.5	0.194218
320.6	0.19299
320.7	0.191801
320.8	0.189519
320.9	0.187421
321	0.184937
321.1	0.182848
321.2	0.180673
321.3	0.178904
321.4	0.17696
321.5	0.174572
321.6	0.171053
321.7	0.167108
321.8	0.163676
321.9	0.16063
322	0.158242
322.1	0.156357
322.2	0.154327
322.3	0.152045
322.4	0.148555
322.5	0.145287
322.6	0.143517
322.7	0.142028
322.8	0.140501
322.9	0.139515
323	0.138151
323.1	0.135744
323.2	0.13323
323.3	0.130755
323.4	0.129015
323.5	0.127719
323.6	0.125979
323.7	0.124161
323.8	0.122643
323.9	0.120932
324	0.11953
324.1	0.118264
324.2	0.117248
324.3	0.116378
324.4	0.115402
324.5	0.114029
324.6	0.112617
324.7	0.110732
324.8	0.108634
324.9	0.106458
325	0.104505
325.1	0.102456
325.2	0.101112
325.3	0.100377
325.4	0.0994972
325.5	0.0980953
325.6	0.0990815
325.7	0.0992942
325.8	0.0982887
325.9	0.0968384
326	0.0954849
326.1	0.0926926
326.2	0.0909098
326.3	0.0895243
326.4	0.0888127
326.5	0.087902
326.6	0.0858581
326.7	0.0838857
326.8	0.0820526
326.9	0.0803278
327	0.0787692
327.1	0.078016
327.2	0.0780828
327.3	0.0780402
327.4	0.0775114
327.5	0.0770918
327.6	0.0770289
327.7	0.075453
327.8	0.0736169
327.9	0.0718921
328	0.0702485
328.1	0.0683351
328.2	0.067319
328.3	0.0668761
328.4	0.0669922
328.5	0.0674108
328.6	0.0671063
328.7	0.0659083
328.8	0.0648941
328.9	0.0641767
329	0.063179
329.1	0.0628966
329.2	0.0628744
329.3	0.0625389
329.4	0.0621493
329.5	0.0616543
329.6	0.0607474
329.7	0.0600474
329.8	0.0597225
329.9	0.0594663
330	0.059039
330.1	0.0585304
330.2	0.0576931
330.3	0.0564353
330.4	0.0546553
330.5	0.0527855
330.6	0.0519066
330.7	0.0513178
330.8	0.0505095
330.9	0.0496655
331	0.0492488
331.1	0.0482346
331.2	0.0475578
331.3	0.0472861
331.4	0.047434
331.5	0.0473963
331.6	0.0472619
331.7	0.0470424
331.8	0.0468839
331.9	0.0463076
332	0.0459035
332.1	0.0453205
332.2	0.0447182
332.3	0.0442425
332.4	0.0435937
332.5	0.0425708
332.6	0.0417422
332.7	0.0413835
332.8	0.0408344
332.9	0.0403974
333	0.0407145
333.1	0.0406952
333.2	0.0398685
333.3	0.0390042
333.4	0.0383167
333.5	0.037172
333.6	0.0366064
333.7	0.0362342
333.8	0.0358223
333.9	0.0353621
334	0.0352509
334.1	0.0350005
334.2	0.0348941
334.3	0.0353321
334.4	0.0354858
334.5	0.035305
334.6	0.0349289
334.7	0.0343053
334.8	0.0330813
334.9	0.032098
335	0.0310722
335.1	0.0306874
335.2	0.03067
335.3	0.0308479
335.4	0.0311051
335.5	0.0318486
335.6	0.0320313
335.7	0.0318447
335.8	0.0314271
335.9	0.0307145
336	0.029707
336.1	0.0290254
336.2	0.028484
336.3	0.0278778
336.4	0.0280054
336.5	0.0281553
336.6	0.028337
336.7	0.0288379
336.8	0.0294576
336.9	0.0293474
337	0.0291482
337.1	0.0288118
337.2	0.028427
337.3	0.0280567
337.4	0.0281214
337.5	0.0283602
337.6	0.0284386
337.7	0.0281968
337.8	0.028018
337.9	0.027463
338	0.0266596
338.1	0.0255303
338.2	0.024168
338.3	0.0230745
338.4	0.0222411
338.5	0.0215585
338.6	0.0213207
338.7	0.0217268
338.8	0.0220652
338.9	0.022245
339	0.0225321
339.1	0.0228261
339.2	0.0226288
339.3	0.0223494
339.4	0.0220545
339.5	0.021371
339.6	0.020672
339.7	0.0203742
339.8	0.0205018
339.9	0.0209059
340	0.0213168
340.1	0.0214367
340.2	0.0214619
340.3	0.0212347
340.4	0.0209601
340.5	0.0211795
340.6	0.0214271
340.7	0.0214599
340.8	0.0214029
340.9	0.0211225
341	0.0204525
341.1	0.019651
341.2	0.0188524
341.3	0.0177231
341.4	0.0169438
341.5	0.0168065
341.6	0.0169699
341.7	0.0169806
341.8	0.0175143
341.9	0.0182094
342	0.0184734
342.1	0.0185497
342.2	0.0186097
342.3	0.0182442
342.4	0.0178101
342.5	0.0174553
342.6	0.0173528
342.7	0.0175964
342.8	0.0177357
342.9	0.0176245
343	0.0172735
343.1	0.0167157
343.2	0.0160311
343.3	0.0154733
343.4	0.0150517
343.5	0.0146108
343.6	0.0146176
343.7	0.0146215
343.8	0.0151716
343.9	0.0154597
344	0.0156898
344.1	0.0158049
344.2	0.0159383
344.3	0.0158339
344.4	0.0156976
344.5	0.0156415
344.6	0.0156618
344.7	0.0158397
344.8	0.015568
344.9	0.0152132
345	0.0151339
345.1	0.0146602
345.2	0.0140656
345.3	0.0138122
345.4	0.0141497
345.5	0.0142396
345.6	0.014197
345.7	0.0141332
345.8	0.0139389
345.9	0.0134506
346	0.0132196
346.1	0.0132031
346.2	0.0132186
346.3	0.0131064
346.4	0.0130484
346.5	0.0126114
346.6	0.0123533
346.7	0.0122614
346.8	0.0126124
346.9	0.0124065
347	0.0123165
347.1	0.0124103
347.2	0.0123717
347.3	0.012188
347.4	0.0124239
347.5	0.0125612
347.6	0.0123504
347.7	0.0123204
347.8	0.012741
347.9	0.0130378
348	0.0132495
348.1	0.012975
348.2	0.0124103
348.3	0.0111718
348.4	0.0101305
348.5	0.00965387
348.6	0.00988301
348.7	0.0102678
348.8	0.0109069
348.9	0.0115682
349	0.0116958
349.1	0.0113323
349.2	0.0104718
349.3	0.00971962
349.4	0.00887093
349.5	0.00848632
349.6	0.00846814
349.7	0.00860969
349.8	0.00869477
349.9	0.00894566
350	0.0087637
350.1	0.00850933
350.2	0.0088105
350.3	0.00861462
350.4	0.00830571
350.5	0.0081311
350.6	0.0078337
350.7	0.00722073
350.8	0.00703983
350.9	0.00717645
351	0.00764565
351.1	0.00820275
351.2	0.00856976
351.3	0.00882481
351.4	0.0087698
351.5	0.00849057
351.6	0.00825341
351.7	0.00817674
351.8	0.00832631
351.9	0.0085305
352	0.0087958
352.1	0.00905192
352.2	0.00930794
352.3	0.00939669
352.4	0.00955961
352.5	0.0093965
352.6	0.00899033
352.7	0.00864817
352.8	0.00825776
352.9	0.0076997
353	0.00685816
353.1	0.00546021
353.2	0.00458213
353.3	0.00422102
353.4	0.004064
353.5	0.0043935
353.6	0.00596432
353.7	0.00726027
353.8	0.00811892
353.9	0.00878217
354	0.00935821
354.1	0.00971962
354.2	0.00951832
354.3	0.00846263
354.4	0.00525147
354.5	0.00233182
354.6	0.000627468
354.7	5.04554e-07
354.8	0.000699923
354.9	0.00390457
355	0.00672493
355.1	0.00781292
355.2	0.00801605
355.3	0.00747404
355.4	0.00647346
355.5	0.00545731
355.6	0.00514203
355.7	0.0051107
355.8	0.00552954
355.9	0.00585362
356	0.00614715
356.1	0.00624983
356.2	0.00617867
356.3	0.00567572
356.4	0.00565629
356.5	0.00611544
356.6	0.00648574
356.7	0.00647327
356.8	0.00623726
356.9	0.0056063
357	0.00481417
357.1	0.00398424
357.2	0.00382616
357.3	0.00437001
357.4	0.00505327
357.5	0.00562351
357.6	0.00617741
357.7	0.00618989
357.8	0.0058047
357.9	0.00548497
358	0.00538026
358.1	0.0054637
358.2	0.00561607
358.3	0.00573257
358.4	0.00573325
358.5	0.00563676
358.6	0.00474688
358.7	0.00232234
358.8	0.000598559
358.9	0
359	0
359.1	0.000240791
359.2	0.00237823
359.3	0.00405559
359.4	0.00482394
359.5	0.00500309
359.6	0.00488659
359.7	0.00477047
359.8	0.00445219
359.9	0.00440182
360	0.00438209
360.1	0.00451561
360.2	0.00498095
360.3	0.00575848
360.4	0.00610161
360.5	0.00653688
360.6	0.00711148
360.7	0.00738896
360.8	0.00750827
360.9	0.00747771
361	0.00682152
361.1	0.00599594
361.2	0.00564227
361.3	0.00563763
361.4	0.00578004
361.5	0.00612936
361.6	0.00639776
361.7	0.00662922
361.8	0.00664884
361.9	0.0067113
362	0.007035
362.1	0.00706652
362.2	0.00678178
362.3	0.00620942
362.4	0.00544774
362.5	0.00504496
362.6	0.00511612
362.7	0.00522498
362.8	0.00530465
362.9	0.00553921
363	0.0055569
363.1	0.0055189
363.2	0.00529721
363.3	0.00519781
363.4	0.00535483
363.5	0.00551165
363.6	0.0054809
363.7	0.0051546
363.8	0.00506439
363.9	0.00519598
364	0.00561742
364.1	0.00616968
364.2	0.00690892
364.3	0.00722953
364.4	0.0076036
364.5	0.0073848
364.6	0.00729315
364.7	0.00755593
364.8	0.00784859
364.9	0.00749966
365	0.00721125
365.1	0.00693232
365.2	0.0065393
365.3	0.00622643
365.4	0.00599565
365.5	0.00573625
365.6	0.00565726
365.7	0.00575703
365.8	0.00539766
365.9	0.00193687
366	0
366.1	0
366.2	0
366.3	0
366.4	0
366.5	0
366.6	0
366.7	0
366.8	0
366.9	0
367	0.00271478
367.1	0.00516175
367.2	0.00620468
367.3	0.00646147
367.4	0.00617519
367.5	0.00622237
367.6	0.00624413
367.7	0.00596055
367.8	0.00567485
367.9	0.00598153
368	0.00634187
368.1	0.00641487
368.2	0.00599575
368.3	0.00592507
368.4	0.00567746
368.5	0.00554694
368.6	0.00589113
368.7	0.00644426
368.8	0.00655748
368.9	0.00624055
369	0.00535048
369.1	0.00481736
369.2	0.00435193
369.3	0.00437668
369.4	0.0049504
369.5	0.00541042
369.6	0.0051515
369.7	0.00519279
369.8	0.00526076
369.9	0.00504457
370	0.0054168
370.1	0.00561123
370.2	0.00538722
370.3	0.005102
370.4	0.00495862
370.5	0.00442686
370.6	0.00434332
370.7	0.00457295
370.8	0.0046938
370.9	0.00435077
371	0.00442048
371.1	0.00449251
371.2	0.00417297
371.3	0.00392536
371.4	0.0039707
371.5	0.00366934
371.6	0.00311699
371.7	0.00316881
371.8	0.00353766
371.9	0.00365484
372	0.0033964
372.1	0.00341381
372.2	0.00342734
372.3	0.00327826
372.4	0.00335058
372.5	0.00381147
372.6	0.00419008
372.7	0.00408557
372.8	0.00329701
372.9	0.00249212
373	0.00205994
373.1	0.0016005
373.2	0.00132041
373.3	0.00135135
373.4	0.00150111
373.5	0.00146118
373.6	0.00143314
373.7	0.00133414
373.8	0.00138306
373.9	0.00175268
374	0.00217945
374.1	0.00231935
374.2	0.0027814
374.3	0.00331316
374.4	0.00366431
374.5	0.00394518
374.6	0.00451861
374.7	0.0047026
374.8	0.00478372
374.9	0.00453195
375	0.0043965
375.1	0.00442841
375.2	0.00445142
375.3	0.00454153
375.4	0.00474978
375.5	0.00495823
375.6	0.00460901
375.7	0.00490399
375.8	0.00470705
375.9	0.0046238
376	0.00450537
376.1	0.00481011
376.2	0.00462264
376.3	0.0049214
376.4	0.00496365
376.5	0.00457498
376.6	0.00412811
376.7	0
376.8	0
376.9	0
377	0
377.1	0
377.2	0
377.3	0
377.4	0
377.5	0
377.6	0
377.7	0
377.8	0
377.9	0
378	0
378.1	0
378.2	0
378.3	0.00445296
378.4	0.00394296
378.5	0.00347037
378.6	0.00299739
378.7	0.00292604
378.8	0.00357817
378.9	0.00387944
379	0.00354559
379.1	0.00319781
379.2	0.00284492
379.3	0.00202079
379.4	0.00125051
379.5	0.0010672
379.6	0.00149444
379.7	0.0016968
379.8	0.00180934
379.9	0.0019971
380	0.00172203
380.1	0.00108692
380.2	0.000708469
380.3	0.000752567
380.4	0.000968191
380.5	0.00128589
380.6	0.00152838
380.7	0.00151793
380.8	0.00158542
380.9	0.00194286
381	0.00180963
381.1	0.00120574
381.2	0.000907899
381.3	0.000673605
381.4	0.000437204
381.5	0.000886039
381.6	0.00136672
381.7	0.00138238
381.8	0.000895224
381.9	0.000177144
382	0
382.1	0
382.2	0.000282375
382.3	0.000905685
382.4	0.00127961
382.5	0.00139254
382.6	0.0010962
382.7	0.000728154
382.8	0.000546814
382.9	0.000704428
383	0.000799014
383.1	0.000971768
383.2	0.00119153
383.3	0.00120903
383.4	0.00136604
383.5	0.00156889
383.6	0.00169893
383.7	0.00130446
383.8	0.000934767
383.9	9.47404e-05
384	0
384.1	0
384.2	0.00024722
384.3	0.000364527
384.4	0.000361675
384.5	0.000155999
384.6	0.000130049
384.7	0.000512308
384.8	0.00114358
384.9	0.00192671
385	0.002522
385.1	0.00248371
385.2	0.00227526
385.3	0.00200232
385.4	0.00164517
385.5	0.00153224
385.6	0.00197825
385.7	0.00255081
385.8	0.00296626
385.9	0.00330484
386	0.00334332
386.1	0.00299198
386.2	0.00214802
386.3	0.0013993
386.4	0.000909359
386.5	0.000417055
386.6	0
386.7	0
386.8	0
386.9	0
387	0
387.1	0
387.2	0
387.3	0
387.4	0
387.5	0
387.6	0
387.7	0
387.8	0
387.9	0
388	0
388.1	0
388.2	0
388.3	0
388.4	0
388.5	0
388.6	0
388.7	0
388.8	0
388.9	0
389	0
389.1	0
389.2	0
389.3	0
389.4	0
389.5	0
389.6	0
389.7	0
389.8	0
389.9	0
390	0
390.1	0
390.2	0
390.3	0
390.4	0
390.5	0
390.6	0
390.7	0
390.8	0
390.9	0
391	0
391.1	0
391.2	0
391.3	0
391.4	0
391.5	0
391.6	0
391.7	0
391.8	0
391.9	0
392	0
392.1	0
392.2	0
392.3	0
392.4	0
392.5	0
392.6	0
392.7	0
392.8	0.000219511
392.9	0.00065364
393	0.00141004
393.1	0.00128232
393.2	0.000344049
393.3	0
393.4	0
393.5	0
393.6	0
393.7	0
393.8	0
393.9	0
394	0
394.1	0
394.2	0
394.3	0
394.4	0
394.5	0
394.6	0
394.7	0
394.8	0
394.9	0
395	0
395.1	0
395.2	0
395.3	0
395.4	0
395.5	0
395.6	0
395.7	0
395.8	0
395.9	0
396	0
396.1	0
396.2	0
396.3	0
396.4	0
396.5	0
396.6	0
396.7	0
396.8	0
396.9	0
397	0
397.1	0
397.2	0
397.3	0
397.4	0
397.5	0
397.6	0
397.7	0
397.8	0
397.9	0
398	0
398.1	0
398.2	0
398.3	0
398.4	0
398.5	0
398.6	0
398.7	0
398.8	0
398.9	0
399	0
399.1	0
399.2	0
399.3	0
399.4	0
399.5	0
399.6	0