File: lasermedia/data/009-ems.txt
# Optical emission spectrum of Ce:LiSrALF6 (Ce:LiSrAlF6)
# assuming unity concentration per meter.  This data was part of the NASA
# Laser Spectra Database found on the web until December of 2005 which
# was created by Pat Cross working at NASA Langley Research Center, Internal
# Operations Group, Aerospace Electronics Systems Division, Remote Sensing.
#
# The spectra was collected by GA on 15 August 1994 and was
# annotated on  6 April 1995.  The sample name was "" was a 9.9900
# long piece of :.
# The incident light was unpolarized.
#
# Spectra were recorded from 260nm to 399.6nm
# every 0.1nm at room temperature.  The
# excitation wavelength was unknown.
#
# SLIT WIDTH IS 1500 MICRONS, SAMPLE IS CYLINDRICAL SHAPE. C-AXIS IS CUT PERP. TO LONG AXIS OF CYLINDER. PUMP LIGHT IS ALONG A(=B & LONG AXIS ) OF CRYSTAL. SAMPLE IS PLACED SO THAT C-AXIS IS IN THE SAME DIRECTION AS EMISSION IS OSBERVED. (S-POL) CONCENTRATION IS ATOMIC PERCENT. TEN (10) INTENSITY VALUES MISSING FROM MIDDLE OF FILE. POINTS SET TO ZERO. FORMAT(1X,G15.8).
#
##Wavelength (nm)	Absorbance (/meter)
260	0.0153179
260.1	0.0137092
260.2	0.014921
260.3	0.0138106
260.4	0.0141321
260.5	0.01399
260.6	0.0146139
260.7	0.0150224
260.8	0.0153121
260.9	0.0153034
261	0.0149108
261.1	0.0144631
261.2	0.0138156
261.3	0.0135571
261.4	0.012723
261.5	0.0125889
261.6	0.0130221
261.7	0.0130659
261.8	0.0136979
261.9	0.0135633
262	0.013229
262.1	0.0121276
262.2	0.0119469
262.3	0.0113477
262.4	0.0112456
262.5	0.0105769
262.6	0.0105911
262.7	0.0110888
262.8	0.0115513
262.9	0.0121197
263	0.01244
263.1	0.0123532
263.2	0.0126787
263.3	0.0118358
263.4	0.0107515
263.5	0.00941046
263.6	0.00953691
263.7	0.00898967
263.8	0.00914915
263.9	0.00962817
264	0.0105451
264.1	0.0104356
264.2	0.0103266
264.3	0.0106488
264.4	0.0101301
264.5	0.0104973
264.6	0.0108393
264.7	0.0102199
264.8	0.0101276
264.9	0.010293
265	0.00970146
265.1	0.00982589
265.2	0.00986471
265.3	0.00946449
265.4	0.00977143
265.5	0.0101825
265.6	0.0102309
265.7	0.0117249
265.8	0.011681
265.9	0.0119323
266	0.0115767
266.1	0.0103065
266.2	0.00878341
266.3	0.00905572
266.4	0.00896664
266.5	0.00936556
266.6	0.00986254
266.7	0.0104482
266.8	0.0114007
266.9	0.0117333
267	0.0124197
267.1	0.0133344
267.2	0.014172
267.3	0.0136183
267.4	0.0137829
267.5	0.0130953
267.6	0.0124251
267.7	0.0116548
267.8	0.0114172
267.9	0.0116314
268	0.0125055
268.1	0.0129515
268.2	0.0129783
268.3	0.0130614
268.4	0.0129181
268.5	0.0129925
268.6	0.0131304
268.7	0.0133001
268.8	0.0133314
268.9	0.0127058
269	0.0121338
269.1	0.0110914
269.2	0.0110161
269.3	0.0116945
269.4	0.0127571
269.5	0.0132901
269.6	0.0144733
269.7	0.0149543
269.8	0.0150687
269.9	0.0151513
270	0.0153135
270.1	0.0155438
270.2	0.0162623
270.3	0.016439
270.4	0.0165462
270.5	0.0171068
270.6	0.0173617
270.7	0.0168605
270.8	0.0175891
270.9	0.0182714
271	0.0185698
271.1	0.0198328
271.2	0.0214725
271.3	0.0217014
271.4	0.0231267
271.5	0.0238017
271.6	0.0230384
271.7	0.023751
271.8	0.0242232
271.9	0.0246737
272	0.0258209
272.1	0.0279082
272.2	0.0282848
272.3	0.0294306
272.4	0.029658
272.5	0.030194
272.6	0.0316569
272.7	0.0340281
272.8	0.0361603
272.9	0.0383794
273	0.0411272
273.1	0.0418109
273.2	0.0420253
273.3	0.0428669
273.4	0.0450744
273.5	0.0466895
273.6	0.049824
273.7	0.0532251
273.8	0.0559178
273.9	0.0578081
274	0.0596361
274.1	0.0606428
274.2	0.062271
274.3	0.0660573
274.4	0.0696641
274.5	0.0739922
274.6	0.0790808
274.7	0.0830294
274.8	0.0868331
274.9	0.0899242
275	0.0935339
275.1	0.0972479
275.2	0.102292
275.3	0.105667
275.4	0.111517
275.5	0.116823
275.6	0.121987
275.7	0.126706
275.8	0.134195
275.9	0.140164
276	0.14514
276.1	0.152049
276.2	0.159914
276.3	0.165766
276.4	0.170981
276.5	0.178861
276.6	0.189
276.7	0.198647
276.8	0.20912
276.9	0.218361
277	0.228674
277.1	0.236134
277.2	0.244738
277.3	0.254747
277.4	0.264901
277.5	0.276185
277.6	0.286803
277.7	0.295305
277.8	0.302215
277.9	0.311442
278	0.322392
278.1	0.33653
278.2	0.350725
278.3	0.365253
278.4	0.381549
278.5	0.390283
278.6	0.397801
278.7	0.410302
278.8	0.420325
278.9	0.4289
279	0.442429
279.1	0.452047
279.2	0.460217
279.3	0.47573
279.4	0.491751
279.5	0.50822
279.6	0.524458
279.7	0.535944
279.8	0.542231
279.9	0.545765
280	0.555905
280.1	0.564335
280.2	0.574895
280.3	0.588916
280.4	0.604401
280.5	0.610817
280.6	0.629228
280.7	0.649087
280.8	0.663282
280.9	0.6781
281	0.689268
281.1	0.69567
281.2	0.694743
281.3	0.70229
281.4	0.717369
281.5	0.734128
281.6	0.744383
281.7	0.759231
281.8	0.762678
281.9	0.763938
282	0.771021
282.1	0.780161
282.2	0.78736
282.3	0.799731
282.4	0.805249
282.5	0.815751
282.6	0.822458
282.7	0.835277
282.8	0.845445
282.9	0.858076
283	0.862349
283.1	0.871388
283.2	0.872373
283.3	0.878022
283.4	0.877428
283.5	0.881658
283.6	0.892145
283.7	0.903501
283.8	0.914539
283.9	0.926634
284	0.934731
284.1	0.932746
284.2	0.941119
284.3	0
284.4	0
284.5	0
284.6	0.936816
284.7	0.946449
284.8	0.963556
284.9	0.975158
285	0.973956
285.1	0.972638
285.2	0.976925
285.3	0.977172
285.4	0.973608
285.5	0.98143
285.6	0.99228
285.7	0.993062
285.8	0.98692
285.9	0.985211
286	0.978084
286.1	0.981561
286.2	0.979692
286.3	0.974275
286.4	0.982285
286.5	0.992772
286.6	0.987166
286.7	0.98792
286.8	1
286.9	0.995597
287	0.990063
287.1	0.986572
287.2	0.986775
287.3	0.980807
287.4	0.977621
287.5	0.971102
287.6	0.969697
287.7	0.969958
287.8	0.970871
287.9	0.972145
288	0.975911
288.1	0.978765
288.2	0.977432
288.3	0.980619
288.4	0.972435
288.5	0.962629
288.6	0.95724
288.7	0.951026
288.8	0.948245
288.9	0.948854
289	0.951446
289.1	0.947637
289.2	0.949563
289.3	0.943538
289.4	0.933688
289.5	0.933253
289.6	0.928097
289.7	0.922201
289.8	0.912149
289.9	0.912293
290	0.893405
290.1	0.887582
290.2	0.879919
290.3	0.874893
290.4	0.860321
290.5	0.855034
290.6	0.84898
290.7	0.837536
290.8	0.828483
290.9	0.823399
291	0.821733
291.1	0.818677
291.2	0.815925
291.3	0.812376
291.4	0.807697
291.5	0.80128
291.6	0.789866
291.7	0.778496
291.8	0.774353
291.9	0.769631
292	0.762895
292.1	0.755754
292.2	0.752727
292.3	0.741544
292.4	0.732332
292.5	0.727407
292.6	0.724771
292.7	0.716804
292.8	0.706954
292.9	0.703029
293	0.697496
293.1	0.692687
293.2	0.684821
293.3	0.682055
293.4	0.67487
293.5	0.668584
293.6	0.657314
293.7	0.649449
293.8	0.638759
293.9	0.634037
294	0.627968
294.1	0.623593
294.2	0.619798
294.3	0.61764
294.4	0.613656
294.5	0.608572
294.6	0.607384
294.7	0.605226
294.8	0.598693
294.9	0.589394
295	0.579457
295.1	0.574634
295.2	0.568652
295.3	0.564407
295.4	0.560931
295.5	0.5545
295.6	0.544795
295.7	0.540174
295.8	0.537596
295.9	0.536031
296	0.53438
296.1	0.52821
296.2	0.523198
296.3	0.517244
296.4	0.511436
296.5	0.510596
296.6	0.514507
296.7	0.513811
296.8	0.51413
296.9	0.514145
297	0.510523
297.1	0.504483
297.2	0.501919
297.3	0.499297
297.4	0.495271
297.5	0.491273
297.6	0.488999
297.7	0.484899
297.8	0.484117
297.9	0.481713
298	0.48277
298.1	0.479786
298.2	0.4756
298.3	0.468285
298.4	0.465142
298.5	0.461839
298.6	0.46042
298.7	0.459565
298.8	0.459898
298.9	0.454785
299	0.44944
299.1	0.446601
299.2	0.446297
299.3	0.442328
299.4	0.44424
299.5	0.444863
299.6	0.4424
299.7	0.438171
299.8	0.434361
299.9	0.430103
300	0.428857
300.1	0.428162
300.2	0.425192
300.3	0.425134
300.4	0.42386
300.5	0.420398
300.6	0.417979
300.7	0.417327
300.8	0.415415
300.9	0.414517
301	0.412967
301.1	0.411939
301.2	0.410316
301.3	0.40881
301.4	0.406202
301.5	0.407245
301.6	0.408172
301.7	0.407825
301.8	0.407245
301.9	0.404826
302	0.400539
302.1	0.398612
302.2	0.398294
302.3	0.395208
302.4	0.395657
302.5	0.395107
302.6	0.393905
302.7	0.392094
302.8	0.391935
302.9	0.390226
303	0.390443
303.1	0.391413
303.2	0.392007
303.3	0.394557
303.4	0.395513
303.5	0.395744
303.6	0.394542
303.7	0.395614
303.8	0.396613
303.9	0.39712
304	0.397816
304.1	0.396555
304.2	0.394108
304.3	0.391037
304.4	0.390298
304.5	0.390023
304.6	0.39066
304.7	0.391877
304.8	0.393079
304.9	0.393398
305	0.389472
305.1	0.387575
305.2	0.384345
305.3	0.380897
305.4	0.377261
305.5	0.376986
305.6	0.375929
305.7	0.376668
305.8	0.376494
305.9	0.375176
306	0.373669
306.1	0.372887
306.2	0.371033
306.3	0.370816
306.4	0.372032
306.5	0.370584
306.6	0.367513
306.7	0.367701
306.8	0.366296
306.9	0.364732
307	0.365167
307.1	0.364124
307.2	0.362284
307.3	0.360546
307.4	0.360372
307.5	0.360502
307.6	0.360184
307.7	0.359546
307.8	0.361502
307.9	0.359648
308	0.357605
308.1	0.357258
308.2	0.355027
308.3	0.350696
308.4	0.348625
308.5	0.347089
308.6	0.346785
308.7	0.346626
308.8	0.346408
308.9	0.345916
309	0.345815
309.1	0.343975
309.2	0.342454
309.3	0.340745
309.4	0.339514
309.5	0.337355
309.6	0.335776
309.7	0.33427
309.8	0.331532
309.9	0.328911
310	0.328882
310.1	0.329099
310.2	0.329331
310.3	0.329287
310.4	0.328548
310.5	0.326579
310.6	0.323783
310.7	0.321625
310.8	0.32077
310.9	0.320278
311	0.317931
311.1	0.31712
311.2	0.314759
311.3	0.312992
311.4	0.312238
311.5	0.311659
311.6	0.309225
311.7	0.30685
311.8	0.305677
311.9	0.302186
312	0.301244
312.1	0.300462
312.2	0.301157
312.3	0.301375
312.4	0.302461
312.5	0.300361
312.6	0.29939
312.7	0.298463
312.8	0.296015
312.9	0.294798
313	0.294422
313.1	0.293234
313.2	0.291467
313.3	0.288947
313.4	0.285543
313.5	0.283848
313.6	0.282472
313.7	0.279285
313.8	0.279256
313.9	0
314	0
314.1	0
314.2	0
314.3	0
314.4	0
314.5	0
314.6	0.26283
314.7	0.261541
314.8	0.259136
314.9	0.258036
315	0.256587
315.1	0.255008
315.2	0.253125
315.3	0.252879
315.4	0.251662
315.5	0.250373
315.6	0.248519
315.7	0.248244
315.8	0.245187
315.9	0.242754
316	0.241276
316.1	0.239133
316.2	0.235033
316.3	0.234266
316.4	0.232658
316.5	0.230862
316.6	0.228428
316.7	0.227805
316.8	0.225459
316.9	0.223532
317	0.221896
317.1	0.221345
317.2	0.219592
317.3	0.217666
317.4	0.215508
317.5	0.213726
317.6	0.210365
317.7	0.207874
317.8	0.206672
317.9	0.206324
318	0.204658
318.1	0.204586
318.2	0.203572
318.3	0.201182
318.4	0.198184
318.5	0.196547
318.6	0.193621
318.7	0.190492
318.8	0.18913
318.9	0.187783
319	0.185104
319.1	0.183496
319.2	0.182438
319.3	0.179556
319.4	0.17747
319.5	0.175964
319.6	0.174385
319.7	0.172067
319.8	0.170329
319.9	0.168287
320	0.166722
320.1	0.163999
320.2	0.162174
320.3	0.161189
320.4	0.159132
320.5	0.157119
320.6	0.156018
320.7	0.155047
320.8	0.15257
320.9	0.151006
321	0.150267
321.1	0.149818
321.2	0.148616
321.3	0.148066
321.4	0.147761
321.5	0.145458
321.6	0.142964
321.7	0.141091
321.8	0.139611
321.9	0.137118
322	0.135044
322.1	0.133627
322.2	0.131747
322.3	0.129883
322.4	0.129002
322.5	0.128485
322.6	0.127368
322.7	0.126477
322.8	0.125389
322.9	0.124319
323	0.121952
323.1	0.120005
323.2	0.118473
323.3	0.117062
323.4	0.115332
323.5	0.114252
323.6	0.112586
323.7	0.111232
323.8	0.110242
323.9	0.108732
324	0.107548
324.1	0.107112
324.2	0.105892
324.3	0.103295
324.4	0.101615
324.5	0.100249
324.6	0.0988919
324.7	0.0976071
324.8	0.0969292
324.9	0.0959065
325	0.0950374
325.1	0.0936208
325.2	0.0920057
325.3	0.0914857
325.4	0.0906441
325.5	0.0895085
325.6	0.0882281
325.7	0.0874241
325.8	0.0860539
325.9	0.0853455
326	0.0849762
326.1	0.0843287
326.2	0.0833336
326.3	0.0824109
326.4	0.0814404
326.5	0.0797891
326.6	0.0786882
326.7	0.0775454
326.8	0.0764069
326.9	0.0753176
327	0.0744557
327.1	0.0736692
327.2	0.0731086
327.3	0.0724119
327.4	0.0717065
327.5	0.0713241
327.6	0.0701942
327.7	0.0687284
327.8	0.0679708
327.9	0.0669511
328	0.0659588
328.1	0.0655619
328.2	0.0657575
328.3	0.0649608
328.4	0.0640048
328.5	0.0634964
328.6	0.0629967
328.7	0.0621232
328.8	0.0616524
328.9	0.0613019
329	0.0602242
329.1	0.0590843
329.2	0.0580326
329.3	0.0569274
329.4	0.056196
329.5	0.0555224
329.6	0.0546446
329.7	0.0543781
329.8	0.0537697
329.9	0.0527355
330	0.0521431
330.1	0.0518099
330.2	0.0509683
330.3	0.0502484
330.4	0.0498675
330.5	0.0491099
330.6	0.0480887
330.7	0.0475368
330.8	0.0474152
330.9	0.0471037
331	0.0469951
331.1	0.0469545
331.2	0.0469227
331.3	0.0465301
331.4	0.0461159
331.5	0.045858
331.6	0.0453032
331.7	0.044017
331.8	0.042806
331.9	0.0420485
332	0.0409534
332.1	0.0407057
332.2	0.0404566
332.3	0.0403841
332.4	0.040064
332.5	0.0397642
332.6	0.0390747
332.7	0.0388589
332.8	0.0383881
332.9	0.0382172
333	0.0376943
333.1	0.0369831
333.2	0.0363617
333.3	0.0361082
333.4	0.0356794
333.5	0.0357692
333.6	0.0360778
333.7	0.0364095
333.8	0.0362574
333.9	0.0357446
334	0.0350522
334.1	0.0346235
334.2	0.0335747
334.3	0.0329244
334.4	0.0321219
334.5	0.0311384
334.6	0.0302867
334.7	0.0300621
334.8	0.0299564
334.9	0.029897
335	0.0302273
335.1	0.0301997
335.2	0.0299796
335.3	0.0293582
335.4	0.0290207
335.5	0.0285456
335.6	0.0274954
335.7	0.0271579
335.8	0.0268972
335.9	0.0269001
336	0.026819
336.1	0.0268378
336.2	0.0266306
336.3	0.0266408
336.4	0.0260744
336.5	0.0255081
336.6	0.0254154
336.7	0.0249388
336.8	0.0245158
336.9	0.0240813
337	0.0236178
337.1	0.0234266
337.2	0.0232962
337.3	0.0228979
337.4	0.0228139
337.5	0.0225792
337.6	0.0222866
337.7	0.02181
337.8	0.021571
337.9	0.0211988
338	0.0212987
338.1	0.0211655
338.2	0.0213581
338.3	0.0214175
338.4	0.021503
338.5	0.0214175
338.6	0.0213914
338.7	0.0208511
338.8	0.0201008
338.9	0.0195909
339	0.0192404
339.1	0.0188797
339.2	0.018803
339.3	0.0189768
339.4	0.0187754
339.5	0.0185422
339.6	0.0184524
339.7	0.0182627
339.8	0.0182931
339.9	0.0185524
340	0.0186914
340.1	0.0186581
340.2	0.0185828
340.3	0.0183684
340.4	0.0182105
340.5	0.0179194
340.6	0.0174776
340.7	0.0172574
340.8	0.0168953
340.9	0.0165781
341	0.0162724
341.1	0.0161508
341.2	0.0160218
341.3	0.0157959
341.4	0.0158104
341.5	0.0156814
341.6	0.0155612
341.7	0.0153932
341.8	0.0152266
341.9	0.0145864
342	0.0143561
342.1	0.0143558
342.2	0.0141763
342.3	0.014257
342.4	0.0143106
342.5	0.0140971
342.6	0.0137891
342.7	0.0136066
342.8	0.0134741
342.9	0.013315
343	0.0131105
343.1	0.0128941
343.2	0.0126848
343.3	0.012577
343.4	0.0127843
343.5	0.0129635
343.6	0.01301
343.7	0.0129042
343.8	0.0123797
343.9	0.0120053
344	0.0119763
344.1	0.0118861
344.2	0.0116214
344.3	0.0115948
344.4	0.0115247
344.5	0.0113425
344.6	0.0112004
344.7	0.0113209
344.8	0.0113271
344.9	0.0114004
345	0.0112056
345.1	0.0110599
345.2	0.0108398
345.3	0.0105784
345.4	0.0104222
345.5	0.0101557
345.6	0.00993178
345.7	0.00966192
345.8	0.00953416
345.9	0.0093095
346	0.00938598
346.1	0.00934876
346.2	0.00943871
346.3	0.00942147
346.4	0.00930602
346.5	0.00928357
346.6	0.00921622
346.7	0.00933948
346.8	0.00916509
346.9	0.00894738
347	0.00875893
347.1	0.00838
347.2	0.00788519
347.3	0.00759738
347.4	0.00730768
347.5	0.00711256
347.6	0.00750786
347.7	0.00776888
347.8	0.00801266
347.9	0.00840375
348	0.00856497
348.1	0.00817171
348.2	0.00800585
348.3	0.0079301
348.4	0.00747585
348.5	0.00717615
348.6	0.00714573
348.7	0.0069131
348.8	0.00670568
348.9	0.00671712
349	0.00651346
349.1	0.00621102
349.2	0.00623999
349.3	0.00617452
349.4	0.00584672
349.5	0.00553631
349.6	0.00543766
349.7	0.00533366
349.8	0.00511957
349.9	0.0051962
350	0.00544462
350.1	0.00561018
350.2	0.00539638
350.3	0.00554268
350.4	0.00565175
350.5	0.00568796
350.6	0.00554456
350.7	0.00552501
350.8	0.00533091
350.9	0.00513174
351	0.00484508
351.1	0.00474543
351.2	0.00456799
351.3	0.00460782
351.4	0.0046252
351.5	0.00455365
351.6	0.00453699
351.7	0.00465258
351.8	0.00462636
351.9	0.00454524
352	0.00445022
352.1	0.00432768
352.2	0.00422991
352.3	0.00422194
352.4	0.00405449
352.5	0.00421325
352.6	0.00424207
352.7	0.00448571
352.8	0.00437374
352.9	0.00454626
353	0.00435578
353.1	0.0042512
353.2	0.00399945
353.3	0.00422469
353.4	0.00419311
353.5	0.00441865
353.6	0.00451091
353.7	0.00432261
353.8	0.00397526
353.9	0.00386836
354	0.00379507
354.1	0.00396266
354.2	0.00401915
354.3	0.00396179
354.4	0.00379724
354.5	0.00372988
354.6	0.00345554
354.7	0.00342251
354.8	0.00328621
354.9	0.00319191
355	0.00278836
355.1	0.00250793
355.2	0.00243348
355.3	0.00253951
355.4	0.00265959
355.5	0.0028463
355.6	0.0029067
355.7	0.00293683
355.8	0.00287527
355.9	0.00267871
356	0.0024849
356.1	0.00243898
356.2	0.00239263
356.3	0.00223822
356.4	0.00205064
356.5	0.00232238
356.6	0.00221823
356.7	0.00218694
356.8	0.00210626
356.9	0.00228168
357	0.0021067
357.1	0.00238032
357.2	0.00234019
357.3	0.00227892
357.4	0.00217507
357.5	0.00204166
357.6	0.00187754
357.7	0.00174037
357.8	0.00187189
357.9	0.00216884
358	0.00239611
358.1	0.00222562
358.2	0.00216275
358.3	0.00191593
358.4	0.0017563
358.5	0.00142673
358.6	0.00146298
358.7	0.00146298
358.8	0.00159364
358.9	0.0017059
359	0.0021319
359.1	0.00239393
359.2	0.00251561
359.3	0.00262048
359.4	0.00237409
359.5	0.00210365
359.6	0.00194519
359.7	0.0017298
359.8	0.00144966
359.9	0.00140672
360	0.00143539
360.1	0.00123037
360.2	0.00137464
360.3	0.00144879
360.4	0.00111963
360.5	0.000716167
360.6	0.000444008
360.7	0.000434318
360.8	0.000531932
360.9	0.000810406
361	0.00117438
361.1	0.00144562
361.2	0.00123316
361.3	0.00116496
361.4	0.00102181
361.5	0.000974086
361.6	0.000793748
361.7	0.000812738
361.8	0.000824761
361.9	0.00104458
362	0.000910323
362.1	0.000746078
362.2	0.000600982
362.3	0.000563857
362.4	0.000569173
362.5	0.000480916
362.6	0.000588163
362.7	0.000459826
362.8	0.000239292
362.9	8.05249e-05
363	0
363.1	0.000118687
363.2	0.000377957
363.3	0.000592103
363.4	0.000619871
363.5	0.000518461
363.6	0.000345061
363.7	0.000412257
363.8	0.000436143
363.9	0.000415965
364	0.000633863
364.1	0.000725683
364.2	0.000857077
364.3	0.000902473
364.4	0.000919492
364.5	0.00076417
364.6	0.000876458
364.7	0.000817301
364.8	0.000808682
364.9	0.000892159
365	0.00109911
365.1	0.000980938
365.2	0.000839318
365.3	0.000773353
365.4	0.000664977
365.5	0.000880296
365.6	0.00107186
365.7	0.000942886
365.8	0.000831627
365.9	0.000840158
366	0.000834408
366.1	0.000670742
366.2	0.000751467
366.3	0.000612758
366.4	0.000353303
366.5	0.000159654
366.6	0.000236294
366.7	0.000622637
366.8	0.00102561
366.9	0.00150325
367	0.00156264
367.1	0.00150615
367.2	0.00104547
367.3	0.000689138
367.4	0.000264452
367.5	0.000235772
367.6	0.000184655
367.7	0
367.8	0
367.9	9.14915e-05
368	3.07299e-05
368.1	0.00017508
368.2	0.000621247
368.3	0.00111636
368.4	0.00121329
368.5	0.00129163
368.6	0.00132005
368.7	0.00117449
368.8	0.000829975
368.9	0.000649159
369	0.00048025
369.1	0.00017789
369.2	0
369.3	0
369.4	0
369.5	0
369.6	0
369.7	0
369.8	0
369.9	0
370	0
370.1	0
370.2	0
370.3	0
370.4	0
370.5	0
370.6	0
370.7	0
370.8	2.1965e-05
370.9	0
371	0
371.1	0
371.2	0
371.3	0
371.4	0
371.5	0
371.6	2.29355e-05
371.7	0
371.8	0
371.9	0
372	0
372.1	0
372.2	0
372.3	0
372.4	0
372.5	0
372.6	0
372.7	0
372.8	0
372.9	0
373	0
373.1	0
373.2	0
373.3	0
373.4	0
373.5	0
373.6	0
373.7	0
373.8	5.60511e-05
373.9	0.000282269
374	0.000177137
374.1	0.000172502
374.2	0.000148457
374.3	3.05141e-05
374.4	0
374.5	0
374.6	0
374.7	0
374.8	0
374.9	0
375	0
375.1	0
375.2	0
375.3	2.1474e-06
375.4	0.000119388
375.5	0.000172342
375.6	0.000417892
375.7	0.000568449
375.8	0.000630329
375.9	0.000808653
376	0.000814013
376.1	0.000576546
376.2	0.000397135
376.3	0.000139632
376.4	0
376.5	0
376.6	0
376.7	0
376.8	0.000143004
376.9	0
377	0.000191115
377.1	0.000399206
377.2	0.00048306
377.3	0.000289294
377.4	0.000431479
377.5	0.000445804
377.6	0.000320393
377.7	0.0001568
377.8	0.000227704
377.9	0.000216623
378	0.000454133
378.1	0.00077583
378.2	0.00104592
378.3	0.00129116
378.4	0.00115256
378.5	0.000910222
378.6	0.000690456
378.7	0.000600678
378.8	0.00052666
378.9	0.000579284
379	0.000825079
379.1	0.000776613
379.2	0.000663441
379.3	0.000548474
379.4	0.000660124
379.5	0.000703246
379.6	0.000688428
379.7	0.000402306
379.8	0.0004351
379.9	0.0005296
380	0.000142383
380.1	0.000306604
380.2	0.000525182
380.3	0.00033611
380.4	0
380.5	0
380.6	0
380.7	0
380.8	0
380.9	6.63963e-05
381	0.000484001
381.1	0.000795284
381.2	0.000654779
381.3	0.000749946
381.4	0.000475165
381.5	0.000531642
381.6	0.000789968
381.7	0.000945928
381.8	0.00105619
381.9	0.00182438
382	0.00192665
382.1	0.00155496
382.2	0.00129897
382.3	0.00154395
382.4	0.00133005
382.5	0.000883888
382.6	0.000974202
382.7	0.00121693
382.8	0.00099099
382.9	0.00076979
383	0.00110241
383.1	0.00108535
383.2	0.0012295
383.3	0.00114194
383.4	0.0011079
383.5	0.00102468
383.6	0.00116359
383.7	0.00084207
383.8	0.000543984
383.9	0.000378217
384	0.000670568
384.1	0.000655822
384.2	0.000787491
384.3	0.000841071
384.4	0.000980518
384.5	0.000740603
384.6	0.000934441
384.7	0.00121368
384.8	0.00181294
384.9	0.00221504
385	0.00229573
385.1	0.00218767
385.2	0.00209178
385.3	0.00173516
385.4	0.00172284
385.5	0.00204702
385.6	0.00222692
385.7	0.00246448
385.8	0.00264916
385.9	0.00257847
386	0.0025369
386.1	0.00219288
386.2	0.00204905
386.3	0.00219114
386.4	0.00210583
386.5	0.00186538
386.6	0.00182656
386.7	0.00181555
386.8	0.00151498
386.9	0.00138452
387	0.0013976
387.1	0.00186118
387.2	0.00172849
387.3	0.00190173
387.4	0.00227038
387.5	0.00252357
387.6	0.0026493
387.7	0.00308878
387.8	0.00326115
387.9	0.00323841
388	0.00310037
388.1	0.00287353
388.2	0.00302852
388.3	0.00299651
388.4	0.00298188
388.5	0.00275867
388.6	0.00247708
388.7	0.00189015
388.8	0.00183365
388.9	0.0015215
389	0.00164738
389.1	0.00185437
389.2	0.00205035
389.3	0.00212277
389.4	0.00264481
389.5	0.00294378
389.6	0.00252213
389.7	0.00231166
389.8	0.00234106
389.9	0.00205122
390	0.00194939
390.1	0.00240929
390.2	0.00277025
390.3	0.00263699
390.4	0.00227458
390.5	0.0019504
390.6	0.00193027
390.7	0.00215174
390.8	0.00242812
390.9	0.00283688
391	0.00302504
391.1	0.00278025
391.2	0.00228515
391.3	0.00225256
391.4	0.00192781
391.5	0.00200661
391.6	0.00245173
391.7	0.00258398
391.8	0.00234946
391.9	0.00260339
392	0.00299014
392.1	0.00282312
392.2	0.00321147
392.3	0.00346177
392.4	0.00353767
392.5	0.00351956
392.6	0.00390341
392.7	0.00360821
392.8	0.00339919
392.9	0.00337935
393	0.00317801
393.1	0.00284818
393.2	0.00277837
393.3	0.00295754
393.4	0.00318018
393.5	0.00346524
393.6	0.00369555
393.7	0.00401582
393.8	0.00402914
393.9	0.0037619
394	0.00323624
394.1	0.00285919
394.2	0.00267378
394.3	0.00256906
394.4	0.00271709
394.5	0.00307067
394.6	0.00351391
394.7	0.00382418
394.8	0.00407955
394.9	0.00423396
395	0.00420963
395.1	0.00454409
395.2	0.00458319
395.3	0.00453713
395.4	0.00440619
395.5	0.00442936
395.6	0.00413778
395.7	0.00407477
395.8	0.00413677
395.9	0.00431986
396	0.00432449
396.1	0.00423338
396.2	0.00388357
396.3	0.00392543
396.4	0.00390718
396.5	0.00405145
396.6	0.00416342
396.7	0.00439141
396.8	0.00200516
396.9	0
397	0
397.1	0
397.2	0
397.3	0
397.4	0.000164463
397.5	0.00313513
397.6	0.00460883
397.7	0.00490824
397.8	0.00506366
397.9	0.00514116
398	0.0051836
398.1	0.00540304
398.2	0.00546866
398.3	0.00605458
398.4	0.0064477
398.5	0.00633617
398.6	0.00625433
398.7	0.00613743
398.8	0.00599258
398.9	0.00613149
399	0.00631024
399.1	0.00625809
399.2	0.00603039
399.3	0.00577734
399.4	0.00525095
399.5	0.00534844
399.6	0.0050205