File: lasermedia/data/010-ems.txt
# Optical emission spectrum of Ce:LiSrALF6 (Ce:LiSrAlF6)
# assuming unity concentration per meter.  This data was part of the NASA
# Laser Spectra Database found on the web until December of 2005 which
# was created by Pat Cross working at NASA Langley Research Center, Internal
# Operations Group, Aerospace Electronics Systems Division, Remote Sensing.
#
# The spectra was collected by GA on 15 August 1994 and was
# annotated on  6 April 1995.  The sample name was "" was a 9.990
# long piece of :.
# The incident light was unpolarized.
#
# Spectra were recorded from 260nm to 399.6nm
# every 0.1nm at room temperature.  The
# excitation wavelength was unknown.
#
# SLIT WIDTH IS 1500 MICRONS, SAMPLE IS CYLINDRICAL SHAPE. C-AXIS IS CUT PERP. TO LONG AXIS OF CYLINDER. PUMP LIGHT IS ALONG A(=B & LONG AXIS ) OF CRYSTAL. POLARIZER AFTER CRYSTAL IS PLACED PARALLEL TO THE C-AXIS (P-POL). CONCENTRATION IS ATOMIC PERCENT. TEN (10) INTENSITY VALUES MISSING FROM MIDDLE OF FILE. POINTS SET TO ZERO. FORMAT(1X,G15.8).
#
##Wavelength (nm)	Absorbance (/meter)
260	0
260.1	0
260.2	0
260.3	0
260.4	0
260.5	0
260.6	0
260.7	0
260.8	0
260.9	0
261	0
261.1	0
261.2	0
261.3	0
261.4	0
261.5	0
261.6	0
261.7	0
261.8	0
261.9	0
262	0
262.1	0
262.2	0
262.3	0
262.4	0
262.5	0
262.6	0
262.7	0
262.8	0
262.9	0
263	0
263.1	0
263.2	0
263.3	0
263.4	0
263.5	0
263.6	0
263.7	0
263.8	0
263.9	0
264	0
264.1	0
264.2	0
264.3	0
264.4	0
264.5	0
264.6	0
264.7	0
264.8	0
264.9	0
265	0
265.1	0
265.2	0
265.3	0
265.4	0.000116994
265.5	0
265.6	0
265.7	0
265.8	0
265.9	0
266	0
266.1	0
266.2	0
266.3	0
266.4	0
266.5	0
266.6	0
266.7	0
266.8	0
266.9	0
267	0
267.1	0
267.2	0
267.3	0
267.4	0
267.5	0
267.6	0
267.7	0
267.8	0
267.9	0
268	0
268.1	0
268.2	0
268.3	0
268.4	0
268.5	0
268.6	0
268.7	0
268.8	0
268.9	0
269	0
269.1	0
269.2	0
269.3	0
269.4	0
269.5	0
269.6	0
269.7	0
269.8	0
269.9	0
270	0
270.1	0
270.2	0
270.3	0
270.4	0
270.5	0
270.6	0
270.7	0
270.8	0
270.9	0.000573165
271	0.00220446
271.1	0.00390407
271.2	0.0044999
271.3	0.0044246
271.4	0.0032621
271.5	0.00130883
271.6	0
271.7	0
271.8	0.000300327
271.9	0.00148105
272	0.0025994
272.1	0.00399395
272.2	0.00431796
272.3	0.00484643
272.4	0.00521548
272.5	0.00584742
272.6	0.00620437
272.7	0.00673403
272.8	0.0070876
272.9	0.00729474
273	0.00776052
273.1	0.0075253
273.2	0.00731161
273.3	0.0069497
273.4	0.00624415
273.5	0.00557411
273.6	0.00479563
273.7	0.0045004
273.8	0.00461845
273.9	0.00525952
274	0.00611032
274.1	0.00702599
274.2	0.00763938
274.3	0.00854603
274.4	0.00962014
274.5	0.0098619
274.6	0.0112589
274.7	0.0121696
274.8	0.0128869
274.9	0.0134504
275	0.0150873
275.1	0.0163135
275.2	0.0180089
275.3	0.0196071
275.4	0.021129
275.5	0.0220992
275.6	0.0229067
275.7	0.0238115
275.8	0.0253472
275.9	0.0275089
276	0.0298938
276.1	0.0308929
276.2	0.0311875
276.3	0.0307302
276.4	0.0299752
276.5	0.0302153
276.6	0.0327986
276.7	0.0367966
276.8	0.0405903
276.9	0.0438115
277	0.0464107
277.1	0.0483661
277.2	0.0490744
277.3	0.0512083
277.4	0.0533165
277.5	0.054995
277.6	0.0561865
277.7	0.0569236
277.8	0.0570347
277.9	0.0581012
278	0.0596835
278.1	0.0624524
278.2	0.0662917
278.3	0.0696667
278.4	0.0729554
278.5	0.0749296
278.6	0.0765496
278.7	0.079256
278.8	0.0811855
278.9	0.0822788
279	0.0843224
279.1	0.08662
279.2	0.0887183
279.3	0.0919534
279.4	0.0966677
279.5	0.103482
279.6	0.109514
279.7	0.113304
279.8	0.115288
279.9	0.116458
280	0.117867
280.1	0.118899
280.2	0.121935
280.3	0.128095
280.4	0.134028
280.5	0.137222
280.6	0.143204
280.7	0.14873
280.8	0.151687
280.9	0.154841
281	0.157837
281.1	0.157153
281.2	0
281.3	0
281.4	0
281.5	0
281.6	0.160238
281.7	0.176548
281.8	0.190109
281.9	0.199355
282	0.209256
282.1	0.218264
282.2	0.225635
282.3	0.232302
282.4	0.236558
282.5	0.241736
282.6	0.246647
282.7	0.253869
282.8	0.262242
282.9	0.273016
283	0.279603
283.1	0.288155
283.2	0.295179
283.3	0.304603
283.4	0.310308
283.5	0.317698
283.6	0.328442
283.7	0.339177
283.8	0.348016
283.9	0.355694
284	0.360913
284.1	0.338661
284.2	0
284.3	0
284.4	0
284.5	0
284.6	0
284.7	0
284.8	0.40876
284.9	0.43995
285	0.458631
285.1	0.471746
285.2	0.486389
285.3	0.500585
285.4	0.510119
285.5	0.523234
285.6	0.53749
285.7	0.546022
285.8	0.550843
285.9	0.557688
286	0.563343
286.1	0.574484
286.2	0.584544
286.3	0.595089
286.4	0.61253
286.5	0.62876
286.6	0.636319
286.7	0.644861
286.8	0.657341
286.9	0.664355
287	0.668978
287.1	0.6762
287.2	0.68878
287.3	0.697312
287.4	0.71006
287.5	0.723502
287.6	0.736677
287.7	0.746419
287.8	0.760704
287.9	0.771935
288	0.785079
288.1	0.798095
288.2	0.814841
288.3	0.831677
288.4	0.841181
288.5	0.845942
288.6	0.851696
288.7	0.854772
288.8	0.859782
288.9	0.868333
289	0.877937
289.1	0.88625
289.2	0.901915
289.3	0.909385
289.4	0.914266
289.5	0.922827
289.6	0.929375
289.7	0.930863
289.8	0.933165
289.9	0.938581
290	0.93875
290.1	0.947331
290.2	0.95506
290.3	0.961538
290.4	0.961409
290.5	0.967351
290.6	0.970853
290.7	0.968274
290.8	0.967024
290.9	0.970952
291	0.977312
291.1	0.979762
291.2	0.986508
291.3	0.991825
291.4	0.99375
291.5	0.990437
291.6	0.989742
291.7	0.983869
291.8	0.990407
291.9	0.994444
292	0.996329
292.1	0.988661
292.2	0.988611
292.3	0.982629
292.4	0.986369
292.5	0.9913
292.6	0.998413
292.7	1
292.8	0.993948
292.9	0.981329
293	0.971577
293.1	0.966508
293.2	0.959028
293.3	0.955704
293.4	0.955357
293.5	0.95498
293.6	0.950308
293.7	0.942748
293.8	0.933393
293.9	0.926558
294	0.919772
294.1	0.913919
294.2	0.911617
294.3	0.909544
294.4	0.903185
294.5	0.896865
294.6	0.892976
294.7	0.890377
294.8	0.887887
294.9	0.882738
295	0.875347
295.1	0.873929
295.2	0.869752
295.3	0.861349
295.4	0.85748
295.5	0.85119
295.6	0.8413
295.7	0.833988
295.8	0.832827
295.9	0.831478
296	0.828135
296.1	0.822331
296.2	0.818284
296.3	0.811121
296.4	0.805188
296.5	0.801577
296.6	0.800556
296.7	0.797222
296.8	0.792421
296.9	0.785923
297	0.777966
297.1	0.769425
297.2	0.763681
297.3	0.756974
297.4	0.746964
297.5	0.738651
297.6	0.729603
297.7	0.719236
297.8	0.714177
297.9	0.711895
298	0.712183
298.1	0.7113
298.2	0.709325
298.3	0.703681
298.4	0.694345
298.5	0.684296
298.6	0.677222
298.7	0.669802
298.8	0.662093
298.9	0.655873
299	0.649653
299.1	0.641389
299.2	0.635446
299.3	0.628978
299.4	0.625456
299.5	0.620089
299.6	0.61246
299.7	0.604683
299.8	0.596915
299.9	0.590536
300	0.58497
300.1	0.58131
300.2	0.575764
300.3	0.57246
300.4	0.566925
300.5	0.564821
300.6	0.560704
300.7	0.556042
300.8	0.551766
300.9	0.549276
301	0.542302
301.1	0.537669
301.2	0.536994
301.3	0.535308
301.4	0.528919
301.5	0.527937
301.6	0.5275
301.7	0.524137
301.8	0.519643
301.9	0.517431
302	0.511181
302.1	0.508105
302.2	0.505962
302.3	0.501319
302.4	0.498869
302.5	0.498105
302.6	0.494911
302.7	0.492768
302.8	0.492808
302.9	0.491855
303	0.491349
303.1	0.491696
303.2	0.487421
303.3	0.484752
303.4	0.482966
303.5	0.483343
303.6	0.483214
303.7	0.487163
303.8	0.490933
303.9	0.491438
304	0.490159
304.1	0.485486
304.2	0.481905
304.3	0.478532
304.4	0.477183
304.5	0.476865
304.6	0.477222
304.7	0.475466
304.8	0.475923
304.9	0.476657
305	0.471101
305.1	0.469107
305.2	0.469901
305.3	0.470317
305.4	0.470585
305.5	0.474444
305.6	0.47744
305.7	0.478968
305.8	0.47876
305.9	0.480069
306	0.48246
306.1	0.483512
306.2	0.481558
306.3	0.479058
306.4	0.476121
306.5	0.473433
306.6	0.470317
306.7	0.470397
306.8	0.469355
306.9	0.46745
307	0.464702
307.1	0.460327
307.2	0.455079
307.3	0.452381
307.4	0.45121
307.5	0.449524
307.6	0.449018
307.7	0.449196
307.8	0.448512
307.9	0.446438
308	0.444444
308.1	0.44246
308.2	0.439038
308.3	0.435893
308.4	0.433006
308.5	0.431726
308.6	0.430952
308.7	0.429395
308.8	0.42752
308.9	0.424762
309	0.421756
309.1	0.418552
309.2	0.416438
309.3	0.413859
309.4	0.411438
309.5	0.409087
309.6	0.407857
309.7	0.406696
309.8	0.404306
309.9	0.403423
310	0.401409
310.1	0.39745
310.2	0.393056
310.3	0.389474
310.4	0.387252
310.5	0.387321
310.6	0.38752
310.7	0.388304
310.8	0.389385
310.9	0.38871
311	0.385486
311.1	0.383661
311.2	0.381022
311.3	0.377252
311.4	0.371359
311.5	0.366935
311.6	0.362996
311.7	0.360516
311.8	0.359474
311.9	0.35878
312	0.358343
312.1	0.356925
312.2	0.353591
312.3	0.350903
312.4	0.349117
312.5	0.346716
312.6	0.343988
312.7	0.342639
312.8	0.339633
312.9	0.338026
313	0.335774
313.1	0.333125
313.2	0.330704
313.3	0.32998
313.4	0.328056
313.5	0.325933
313.6	0.325308
313.7	0.323829
313.8	0.321319
313.9	0.31876
314	0.317391
314.1	0.31497
314.2	0.313006
314.3	0.310595
314.4	0.307996
314.5	0.305476
314.6	0.303145
314.7	0.300486
314.8	0.29869
314.9	0.298661
315	0.297004
315.1	0.295278
315.2	0.293254
315.3	0.291131
315.4	0.286736
315.5	0.283433
315.6	0.280704
315.7	0.279236
315.8	0.277599
315.9	0.275972
316	0.273145
316.1	0.270506
316.2	0.266915
316.3	0.264226
316.4	0.261696
316.5	0.260744
316.6	0.259653
316.7	0.258145
316.8	0.255417
316.9	0.253284
317	0.250308
317.1	0.247034
317.2	0.244236
317.3	0.241994
317.4	0.238938
317.5	0.236468
317.6	0.233899
317.7	0.231577
317.8	0.229514
317.9	0.228056
318	0.226329
318.1	0.224712
318.2	0.222679
318.3	0.220625
318.4	0.218472
318.5	0.216359
318.6	0.214067
318.7	0.212768
318.8	0.210903
318.9	0.209206
319	0.207252
319.1	0.205437
319.2	0.202589
319.3	0.199514
319.4	0.196786
319.5	0.194812
319.6	0.193363
319.7	0.191944
319.8	0.190962
319.9	0.189415
320	0.187659
320.1	0.184812
320.2	0.182659
320.3	0.18119
320.4	0.179524
320.5	0.177341
320.6	0.175238
320.7	0.173115
320.8	0.170744
320.9	0.1687
321	0.166716
321.1	0.165397
321.2	0.164048
321.3	0.16255
321.4	0.160873
321.5	0.158958
321.6	0.157272
321.7	0.155397
321.8	0.153909
321.9	0.152847
322	0.151796
322.1	0.150724
322.2	0.149821
322.3	0.14874
322.4	0.147361
322.5	0.146597
322.6	0.145714
322.7	0.144018
322.8	0.141696
322.9	0.13994
323	0.138046
323.1	0.135665
323.2	0.134127
323.3	0.133175
323.4	0.131379
323.5	0.129643
323.6	0.128631
323.7	0.127798
323.8	0.126538
323.9	0.125536
324	0.124196
324.1	0.122986
324.2	0.121597
324.3	0.120169
324.4	0.118641
324.5	0.11754
324.6	0.116121
324.7	0.114841
324.8	0.114335
324.9	0.11381
325	0.112996
325.1	0.112272
325.2	0.110883
325.3	0.109087
325.4	0.107589
325.5	0.105923
325.6	0.103938
325.7	0.102887
325.8	0.101935
325.9	0.101111
326	0.100456
326.1	0.100099
326.2	0.0995139
326.3	0.0987698
326.4	0.0982173
326.5	0.0979425
326.6	0.0976379
326.7	0.097
326.8	0.09612
326.9	0.0949058
327	0.0934752
327.1	0.0922669
327.2	0.0911468
327.3	0.0902589
327.4	0.0894187
327.5	0.0888165
327.6	0.0885248
327.7	0.0884325
327.8	0.0882312
327.9	0.0879673
328	0.0875655
328.1	0.0865913
328.2	0.0854296
328.3	0.0843948
328.4	0.0834167
328.5	0.0825863
328.6	0.0814246
328.7	0.0801974
328.8	0.0791855
328.9	0.0783006
329	0.077371
329.1	0.0767341
329.2	0.0760387
329.3	0.0754276
329.4	0.0747401
329.5	0.0738601
329.6	0.0731865
329.7	0.0729881
329.8	0.0722431
329.9	0.0713571
330	0.070748
330.1	0.0700655
330.2	0.0687688
330.3	0.0677897
330.4	0.0672143
330.5	0.06687
330.6	0.0666081
330.7	0.0663433
330.8	0.0659484
330.9	0.0654474
331	0.0647609
331.1	0.0637609
331.2	0.0628214
331.3	0.0619841
331.4	0.0615327
331.5	0.0609315
331.6	0.060122
331.7	0.0596538
331.8	0.059503
331.9	0.0591458
332	0.0588085
332.1	0.0590724
332.2	0.0592183
332.3	0.0587847
332.4	0.0578581
332.5	0.0572381
332.6	0.0568006
332.7	0.0562837
332.8	0.0558631
332.9	0.0555704
333	0.0549633
333.1	0.0541935
333.2	0.0535903
333.3	0.0531766
333.4	0.0528085
333.5	0.0526339
333.6	0.052497
333.7	0.0519881
333.8	0.0512063
333.9	0.0509266
334	0.0506796
334.1	0.0501121
334.2	0.0496042
334.3	0.0492599
334.4	0.0484365
334.5	0.0474335
334.6	0.0467688
334.7	0.0463363
334.8	0.0461329
334.9	0.0461726
335	0.0462728
335.1	0.046126
335.2	0.0460952
335.3	0.0455933
335.4	0.044752
335.5	0.0439712
335.6	0.043629
335.7	0.0431954
335.8	0.0429772
335.9	0.0431796
336	0.0433006
336.1	0.0429097
336.2	0.0427252
336.3	0.0426468
336.4	0.0422272
336.5	0.04162
336.6	0.0410437
336.7	0.0404851
336.8	0.0400645
336.9	0.039629
337	0.039497
337.1	0.0395942
337.2	0.0394206
337.3	0.0389206
337.4	0.0385417
337.5	0.0380635
337.6	0.0376101
337.7	0.03738
337.8	0.0374375
337.9	0.0367669
338	0.0328899
338.1	0.0285903
338.2	0.0261319
338.3	0.0250585
338.4	0.0253075
338.5	0.0291855
338.6	0.0333998
338.7	0.0353571
338.8	0.0358919
338.9	0.0359107
339	0.0355704
339.1	0.0351389
339.2	0.0349077
339.3	0.0346042
339.4	0.0341528
339.5	0.0335952
339.6	0.0330675
339.7	0.03262
339.8	0.0322073
339.9	0.0319058
340	0.0317937
340.1	0.0319266
340.2	0.031744
340.3	0.0313502
340.4	0.031119
340.5	0.0309831
340.6	0.0306151
340.7	0.0306577
340.8	0.0307857
340.9	0.0309851
341	0.0310188
341.1	0.0311984
341.2	0.0310407
341.3	0.0309187
341.4	0.030494
341.5	0.0298095
341.6	0.0290675
341.7	0.0287272
341.8	0.0285923
341.9	0.0283869
342	0.0280823
342.1	0.027747
342.2	0.0271905
342.3	0.0261577
342.4	0.0255089
342.5	0.0253244
342.6	0.0252599
342.7	0.0253145
342.8	0.0255982
342.9	0.0255248
343	0.0253482
343.1	0.025121
343.2	0.0249613
343.3	0.0250496
343.4	0.0252073
343.5	0.025127
343.6	0.0248165
343.7	0.0244762
343.8	0.0242034
343.9	0.0241012
344	0.024256
344.1	0.0244722
344.2	0.0243403
344.3	0.0238988
344.4	0.0232302
344.5	0.0226677
344.6	0.0222073
344.7	0.0219821
344.8	0.0219117
344.9	0.0218671
345	0.0219157
345.1	0.0220327
345.2	0.0220675
345.3	0.0221131
345.4	0.0220794
345.5	0.0220079
345.6	0.0218383
345.7	0.0217133
345.8	0.0214653
345.9	0.0214097
346	0.0211429
346.1	0.0206181
346.2	0.0201994
346.3	0.0202738
346.4	0.0213274
346.5	0.0225317
346.6	0.023377
346.7	0.0236518
346.8	0.02363
346.9	0.0224474
347	0.0210556
347.1	0.0202946
347.2	0.0200516
347.3	0.0198452
347.4	0.019748
347.5	0.0196905
347.6	0.0196915
347.7	0.0196171
347.8	0.0194633
347.9	0.0192679
348	0.0188839
348.1	0.0184861
348.2	0.0181746
348.3	0.0179008
348.4	0.0178343
348.5	0.0179841
348.6	0.0178889
348.7	0.0177817
348.8	0.0175675
348.9	0.0172173
349	0.0168194
349.1	0.016505
349.2	0.0160734
349.3	0.0156528
349.4	0.0152133
349.5	0.0148413
349.6	0.0146379
349.7	0.0146706
349.8	0.0147897
349.9	0.0151895
350	0.0155625
350.1	0.0156925
350.2	0.0155109
350.3	0.0152808
350.4	0.0148571
350.5	0.0143343
350.6	0.0140089
350.7	0.0139345
350.8	0.0138204
350.9	0.0138304
351	0.0140724
351.1	0.0141885
351.2	0.0144365
351.3	0.0146468
351.4	0.0145992
351.5	0.0143571
351.6	0.0141141
351.7	0.0138095
351.8	0.0136012
351.9	0.0134484
352	0.0133919
352.1	0.0135417
352.2	0.013503
352.3	0.0131954
352.4	0.0130437
352.5	0.0129454
352.6	0.0108621
352.7	0.00761964
352.8	0.00567054
352.9	0.00472718
353	0.00421766
353.1	0.0058369
353.2	0.00868968
353.3	0.0105
353.4	0.0111478
353.5	0.0114702
353.6	0.0116647
353.7	0.0116915
353.8	0.0117718
353.9	0.011878
354	0.0115913
354.1	0.011256
354.2	0.0110734
354.3	0.0106181
354.4	0.0102044
354.5	0.00995833
354.6	0.00966806
354.7	0.00961627
354.8	0.00982748
354.9	0.0100367
355	0.0101944
355.1	0.0103304
355.2	0.0102063
355.3	0.00986597
355.4	0.00958512
355.5	0.00961875
355.6	0.00953472
355.7	0.00942847
355.8	0.00924147
355.9	0.00900089
356	0.00864177
356.1	0.0084621
356.2	0.00849683
356.3	0.00884871
356.4	0.00899573
356.5	0.00904742
356.6	0.00902004
356.7	0.00870139
356.8	0.00721984
356.9	0.00487887
357	0.00321647
357.1	0.00226071
357.2	0.00195437
357.3	0.00307103
357.4	0.00533185
357.5	0.00691885
357.6	0.00762232
357.7	0.00779147
357.8	0.00767897
357.9	0.00737778
358	0.00704315
358.1	0.00685873
358.2	0.0065871
358.3	0.00623125
358.4	0.00588333
358.5	0.00537897
358.6	0.00492946
358.7	0.00477321
358.8	0.0046255
358.9	0.00463194
359	0.00465565
359.1	0.00459177
359.2	0.00435407
359.3	0.00419653
359.4	0.00400972
359.5	0.00390079
359.6	0.0036877
359.7	0.00332847
359.8	0.00299405
359.9	0.00247728
360	0.00194762
360.1	0.00154355
360.2	0.00127976
360.3	0.000928274
360.4	0.000763234
360.5	0.000526349
360.6	0.000255317
360.7	4.12579e-05
360.8	0
360.9	0
361	0
361.1	0
361.2	0
361.3	0
361.4	0
361.5	0
361.6	0
361.7	0
361.8	0
361.9	0
362	0
362.1	0
362.2	0
362.3	0
362.4	0
362.5	0
362.6	0
362.7	0
362.8	0
362.9	0
363	0
363.1	0
363.2	0
363.3	0
363.4	0
363.5	0
363.6	0
363.7	0
363.8	0
363.9	0
364	0
364.1	0
364.2	0
364.3	0
364.4	0
364.5	0
364.6	0
364.7	2.31359e-05
364.8	0
364.9	0
365	0
365.1	0
365.2	0
365.3	0
365.4	0
365.5	0
365.6	0
365.7	0
365.8	0
365.9	0
366	5.58145e-05
366.1	6.65843e-06
366.2	4.29653e-05
366.3	0.000177569
366.4	6.06607e-05
366.5	0
366.6	2.37927e-05
366.7	0.000280625
366.8	0.000471171
366.9	0.000671895
367	0.000725694
367.1	0.000838155
367.2	0.000973482
367.3	0.000924921
367.4	0.000818978
367.5	0.000759077
367.6	0.000710556
367.7	0.000595813
367.8	0.000602808
367.9	0.00105675
368	0.00201607
368.1	0.00249415
368.2	0.00268839
368.3	0.0027746
368.4	0.00260952
368.5	0.00217907
368.6	0.00197103
368.7	0.00191915
368.8	0.00189831
368.9	0.00175942
369	0.00131736
369.1	0.00107778
369.2	0.00110556
369.3	0.00139315
369.4	0.00151984
369.5	0.00167034
369.6	0.0018128
369.7	0.00164097
369.8	0.00138125
369.9	0.00137748
370	0.00148274
370.1	0.00143998
370.2	0.00142728
370.3	0.00162738
370.4	0.00194891
370.5	0.00212738
370.6	0.00228621
370.7	0.00250317
370.8	0.00241121
370.9	0.00209107
371	0.00200982
371.1	0.00200337
371.2	0.00214097
371.3	0.00226875
371.4	0.00237361
371.5	0.00240982
371.6	0.0024874
371.7	0.0024751
371.8	0.00267143
371.9	0.00283026
372	0.00283859
372.1	0.00286964
372.2	0.00295327
372.3	0.00302887
372.4	0.00340744
372.5	0.00383879
372.6	0.00393849
372.7	0.00378938
372.8	0.00340208
372.9	0.00338224
373	0.00341994
373.1	0.00360387
373.2	0.00400873
373.3	0.00445704
373.4	0.00421349
373.5	0.00392927
373.6	0.00371577
373.7	0.00349633
373.8	0.00330407
373.9	0.00329286
374	0.00347827
374.1	0.00369206
374.2	0.0038621
374.3	0.00419861
374.4	0.00465952
374.5	0.00515982
374.6	0.00579266
374.7	0.00664365
374.8	0.00724325
374.9	0.00757014
375	0.00743879
375.1	0.00714216
375.2	0.00667163
375.3	0.00644663
375.4	0.00616399
375.5	0.0060001
375.6	0.0060122
375.7	0.00587808
375.8	0.00575486
375.9	0.00584712
376	0.00607073
376.1	0.00633194
376.2	0.00654236
376.3	0.00649286
376.4	0.0064629
376.5	0.0065874
376.6	0.00665417
376.7	0.00713502
376.8	0.00766399
376.9	0.00799931
377	0.00811052
377.1	0.00795635
377.2	0.00749921
377.3	0.00709772
377.4	0.00695347
377.5	0.00693601
377.6	0.00713294
377.7	0.00748542
377.8	0.00792897
377.9	0.00809484
378	0.00809306
378.1	0.00814732
378.2	0.00833859
378.3	0.00845794
378.4	0.00869861
378.5	0.00906012
378.6	0.00931042
378.7	0.00925754
378.8	0.00914762
378.9	0.00938155
379	0.00960952
379.1	0.00961746
379.2	0.0098631
379.3	0.0101448
379.4	0.0100486
379.5	0.00999603
379.6	0.0096372
379.7	0.00663581
379.8	0.00372996
379.9	0.00228185
380	0.00165288
380.1	0.00196766
380.2	0.00468016
380.3	0.0074245
380.4	0.00890556
380.5	0.00947827
380.6	0.00970139
380.7	0.0101101
380.8	0.0104315
380.9	0.0107679
381	0.0112718
381.1	0.0113968
381.2	0.0111786
381.3	0.0111111
381.4	0.0108651
381.5	0.0103413
381.6	0.0100208
381.7	0.0100615
381.8	0.0101022
381.9	0.0103433
382	0.0108948
382.1	0.0114058
382.2	0.0121052
382.3	0.0126954
382.4	0.0128452
382.5	0.0128234
382.6	0.0128363
382.7	0.0124772
382.8	0.0120655
382.9	0.0119722
383	0.0120903
383.1	0.0123462
383.2	0.012624
383.3	0.0128016
383.4	0.0127282
383.5	0.0125833
383.6	0.0125863
383.7	0.0126498
383.8	0.0126895
383.9	0.0129187
384	0.0131984
384.1	0.0132877
384.2	0.0134157
384.3	0.0136687
384.4	0.0138661
384.5	0.0137173
384.6	0.013504
384.7	0.0131508
384.8	0.0127014
384.9	0.012499
385	0.0125913
385.1	0.012501
385.2	0.0123889
385.3	0.0126617
385.4	0.0130794
385.5	0.0134117
385.6	0.0137073
385.7	0.0139653
385.8	0.014002
385.9	0.0137927
386	0.013501
386.1	0.0135526
386.2	0.0138333
386.3	0.0140317
386.4	0.0143393
386.5	0.0145238
386.6	0.0146677
386.7	0.0147768
386.8	0.0149355
386.9	0.0148552
387	0.0150714
387.1	0.0159544
387.2	0.016624
387.3	0.0172688
387.4	0.0178641
387.5	0.0182579
387.6	0.0180992
387.7	0.0180208
387.8	0.017878
387.9	0.0178333
388	0.0181081
388.1	0.0181726
388.2	0.0179405
388.3	0.0178075
388.4	0.0175784
388.5	0.0171488
388.6	0.0169544
388.7	0.016995
388.8	0.0168234
388.9	0.0166875
389	0.0166012
389.1	0.0163839
389.2	0.0161438
389.3	0.0160337
389.4	0.0158591
389.5	0.015496
389.6	0.0149325
389.7	0.0145446
389.8	0.0143323
389.9	0.0142817
390	0.0143611
390.1	0.0146647
390.2	0.0149891
390.3	0.0152639
390.4	0.0154206
390.5	0.0155873
390.6	0.0158125
390.7	0.0159266
390.8	0.0161379
390.9	0.016377
391	0.0164802
391.1	0.0163651
391.2	0.0160645
391.3	0.015753
391.4	0.0156954
391.5	0.0157778
391.6	0.0159345
391.7	0.0163046
391.8	0.0165774
391.9	0.0165972
392	0.0167242
392.1	0.0172331
392.2	0.0180347
392.3	0.0188264
392.4	0.0195079
392.5	0.0200099
392.6	0.020246
392.7	0.0201399
392.8	0.0199355
392.9	0.019996
393	0.0200982
393.1	0.0200526
393.2	0.0200863
393.3	0.020249
393.4	0.020371
393.5	0.020374
393.6	0.0204821
393.7	0.0206429
393.8	0.0207639
393.9	0.0209633
394	0.0211498
394.1	0.021244
394.2	0.0213155
394.3	0.0209544
394.4	0.020503
394.5	0.0202232
394.6	0.0199901
394.7	0.0195258
394.8	0.019498
394.9	0.0195556
395	0.0195337
395.1	0.0195704
395.2	0.0200694
395.3	0.0202163
395.4	0.0200079
395.5	0.0195913
395.6	0.0188294
395.7	0.018254
395.8	0.0185615
395.9	0.018998
396	0.0193978
396.1	0.0199454
396.2	0.0202063
396.3	0.0199514
396.4	0.0196885
396.5	0.0197669
396.6	0.0199692
396.7	0.0198621
396.8	0.0199127
396.9	0.0203095
397	0.0205933
397.1	0.0209127
397.2	0.0214325
397.3	0.0216042
397.4	0.0212837
397.5	0.0210476
397.6	0.0211062
397.7	0.0212946
397.8	0.0214325
397.9	0.0218879
398	0.0227054
398.1	0.0233502
398.2	0.0237063
398.3	0.0242956
398.4	0.024504
398.5	0.0244196
398.6	0.024375
398.7	0.0243988
398.8	0.0241359
398.9	0.024254
399	0.0242262
399.1	0.0241171
399.2	0.0237063
399.3	0.0233423
399.4	0.0229107
399.5	0.0213601
399.6	0.0213264