File: lasermedia/data/011-ems.txt
# Optical emission spectrum of Ce:LiYF4 (Ce:LiYF4)
# assuming unity concentration per meter.  This data was part of the NASA
# Laser Spectra Database found on the web until December of 2005 which
# was created by Pat Cross working at NASA Langley Research Center, Internal
# Operations Group, Aerospace Electronics Systems Division, Remote Sensing.
#
# The spectra was collected by GA on 15 August 1994 and was
# annotated on  6 April 1995.  The sample name was "" was a 9.990
# long piece of :.
# The incident light was unpolarized.
#
# Spectra were recorded from 279.8nm to 399.4nm
# every 0.1nm at room temperature.  The
# excitation wavelength was unknown.
#
# SLIT WIDTH IS 1500 MICRONS, SAMPLE IS CYLINDRICAL SHAPE. C-AXIS IS CUT PERP. TO LONG AXIS OF CYLINDER. PUMP LIGHT IS ALONG A(=B & LONG AXIS ) OF CRYSTAL. SAMPLE IS PLACED SO THAT C-AXIS IS IN THE SAME DIRECTION AS EMISSION IS OBSERVED. (S-POLARIZATION) CONCENTRATION IS ATOMIC PERCENT. FORMAT(1X,G15.8).
#
##Wavelength (nm)	Absorbance (/meter)
279.8	0.00103098
279.9	0.00104406
280	0.000944943
280.1	0.000833309
280.2	0.000997031
280.3	0.0011681
280.4	0.00112657
280.5	0.00100554
280.6	0.00127641
280.7	0.00126054
280.8	0.0012082
280.9	0.0007858
281	0.00102147
281.1	0.000915045
281.2	0.000909121
281.3	0.000663678
281.4	0.000755566
281.5	0.000934032
281.6	0.00120602
281.7	0.00224571
281.8	0.00256838
281.9	0.00268467
282	0.00255229
282.1	0.00221323
282.2	0.00147032
282.3	0.00127261
282.4	0.00120645
282.5	0.000903358
282.6	0.00133896
282.7	0.00104479
282.8	0.00119404
282.9	0.00118457
283	0.00116684
283.1	0.00104052
283.2	0.00122676
283.3	0.00111914
283.4	0.000968947
283.5	0.000819325
283.6	0.000551151
283.7	0.00025384
283.8	0.000453091
283.9	0.000598792
284	0.000769198
284.1	0.000815288
284.2	0.00129798
284.3	0.00122495
284.4	0.00124049
284.5	0.00131842
284.6	0.00131561
284.7	0.00142957
284.8	0.00147778
284.9	0.0014949
285	0.00136028
285.1	0.0013649
285.2	0.00122691
285.3	0.00105365
285.4	0.00127863
285.5	0.00123885
285.6	0.00113594
285.7	0.000844469
285.8	0.00133544
285.9	0.00126219
286	0.00140744
286.1	0.00127789
286.2	0.00128478
286.3	0.00133081
286.4	0.00141663
286.5	0.00137791
286.6	0.00160606
286.7	0.00141287
286.8	0.00109538
286.9	0.000932569
287	0.0014095
287.1	0.00148831
287.2	0.00189685
287.3	0.00170933
287.4	0.00222508
287.5	0.00178583
287.6	0.00173507
287.7	0.00160518
287.8	0.00180704
287.9	0.00209885
288	0.00227116
288.1	0.00239256
288.2	0.00232572
288.3	0.00225097
288.4	0.00178685
288.5	0.0018126
288.6	0.00187374
288.7	0.00181845
288.8	0.0018733
288.9	0.00146315
289	0.00200129
289.1	0.00211406
289.2	0.00214493
289.3	0.00194263
289.4	0.00201635
289.5	0.00201635
289.6	0.00188442
289.7	0.0020361
289.8	0.00203756
289.9	0.00212723
290	0.0018869
290.1	0.00178173
290.2	0.00197613
290.3	0.00197262
290.4	0.00177647
290.5	0.00125488
290.6	0.00172015
290.7	0.00136022
290.8	0.0013288
290.9	0.0011922
291	0.00108318
291.1	0.00119145
291.2	0.00117231
291.3	0.00146188
291.4	0.00164907
291.5	0.0019792
291.6	0.00177705
291.7	0.00192172
291.8	0.00221806
291.9	0.00229208
292	0.00244844
292.1	0.00230656
292.2	0.00289749
292.3	0.00259105
292.4	0.0025207
292.5	0.00215414
292.6	0.00205833
292.7	0.00209505
292.8	0.00205365
292.9	0.00191806
293	0.00174473
293.1	0.00163385
293.2	0.00122125
293.3	0.00132434
293.4	0.0017244
293.5	0.00207077
293.6	0.00224161
293.7	0.00206228
293.8	0.00212386
293.9	0.0020459
294	0.00204619
294.1	0.00171591
294.2	0.0018597
294.3	0.00229646
294.4	0.00222333
294.5	0.00226955
294.6	0.00246321
294.7	0.00248354
294.8	0.00220738
294.9	0.00228505
295	0.0024009
295.1	0.00238935
295.2	0.00235541
295.3	0.0021752
295.4	0.00250022
295.5	0.00230261
295.6	0.00249042
295.7	0.00233186
295.8	0.00238072
295.9	0.00253196
296	0.00281222
296.1	0.00261811
296.2	0.00280095
296.3	0.00287848
296.4	0.00283855
296.5	0.00274084
296.6	0.00309057
296.7	0.00294298
296.8	0.00297136
296.9	0.00268262
297	0.0031795
297.1	0.00315727
297.2	0.003525
297.3	0.00351871
297.4	0.0036581
297.5	0.00371413
297.6	0.00386186
297.7	0.00394465
297.8	0.00397932
297.9	0.00410306
298	0.00436635
298.1	0.00470936
298.2	0.00487143
298.3	0.00478835
298.4	0.00497908
298.5	0.00474929
298.6	0.00515183
298.7	0.00524471
298.8	0.00582526
298.9	0.00604672
299	0.0062692
299.1	0.00644121
299.2	0.00692201
299.3	0.00729822
299.4	0.0077679
299.5	0.00813986
299.6	0.00839116
299.7	0.00863353
299.8	0.00893631
299.9	0.00916742
300	0.00959936
300.1	0.00989717
300.2	0.0109755
300.3	0.0118069
300.4	0.0127212
300.5	0.0133002
300.6	0.013978
300.7	0.0145985
300.8	0.0151713
300.9	0.0156774
301	0.0165462
301.1	0.0172776
301.2	0.0178671
301.3	0.0188047
301.4	0.0197715
301.5	0.0210748
301.6	0.0220987
301.7	0.0234444
301.8	0.0251733
301.9	0.0265775
302	0.0281953
302.1	0.030287
302.2	0.0321593
302.3	0.0344411
302.4	0.0370784
302.5	0.0393909
302.6	0.0422827
302.7	0.045723
302.8	0.0490639
302.9	0.053079
303	0.0580815
303.1	0.0636618
303.2	0.0691499
303.3	0.075381
303.4	0.0825366
303.5	0.0899058
303.6	0.0978001
303.7	0.107376
303.8	0.117683
303.9	0.129234
304	0.141547
304.1	0.154243
304.2	0.168095
304.3	0.18341
304.4	0.199119
304.5	0.216394
304.6	0.235117
304.7	0.254059
304.8	0.273689
304.9	0.293933
305	0.315244
305.1	0.338151
305.2	0.361539
305.3	0.385674
305.4	0.411228
305.5	0.435962
305.6	0.461384
305.7	0.486938
305.8	0.512521
305.9	0.537797
306	0.563687
306.1	0.588845
306.2	0.6132
306.3	0.636457
306.4	0.660211
306.5	0.683483
306.6	0.70421
306.7	0.726838
306.8	0.74755
306.9	0.767414
307	0.785785
307.1	0.802899
307.2	0.818711
307.3	0.834742
307.4	0.850613
307.5	0.865313
307.6	0.879107
307.7	0.891554
307.8	0.902349
307.9	0.909955
308	0.917561
308.1	0.925606
308.2	0.930521
308.3	0.936328
308.4	0.939926
308.5	0.944431
308.6	0.946772
308.7	0.947562
308.8	0.947357
308.9	0.950546
309	0.949478
309.1	0.946026
309.2	0.942691
309.3	0.938507
309.4	0.92976
309.5	0.92309
309.6	0.917152
309.7	0.911959
309.8	0.903549
309.9	0.897756
310	0.88977
310.1	0.881228
310.2	0.87248
310.3	0.863397
310.4	0.854548
310.5	0.845318
310.6	0.836498
310.7	0.826946
310.8	0.81798
310.9	0.806731
311	0.795074
311.1	0.784995
311.2	0.773689
311.3	0.763874
311.4	0.753138
311.5	0.743645
311.6	0.733727
311.7	0.72577
311.8	0.71695
311.9	0.707238
312	0.699032
312.1	0.690153
312.2	0.679344
312.3	0.66988
312.4	0.661703
312.5	0.652854
312.6	0.643873
312.7	0.637027
312.8	0.629114
312.9	0.621654
313	0.612878
313.1	0.605198
313.2	0.596978
313.3	0.589226
313.4	0.582146
313.5	0.57473
313.6	0.568762
313.7	0.562195
313.8	0.557251
313.9	0.551897
314	0.547962
314.1	0.542726
314.2	0.539449
314.3	0.535251
314.4	0.531419
314.5	0.527777
314.6	0.525071
314.7	0.521955
314.8	0.519074
314.9	0.518196
315	0.516573
315.1	0.514905
315.2	0.513252
315.3	0.513135
315.4	0.511248
315.5	0.511
315.6	0.51097
315.7	0.511877
315.8	0.51195
315.9	0.513179
316	0.514613
316.1	0.517362
316.2	0.51982
316.3	0.523067
316.4	0.526358
316.5	0.530498
316.6	0.533701
316.7	0.538191
316.8	0.54255
316.9	0.547641
317	0.552175
317.1	0.557704
317.2	0.562385
317.3	0.568484
317.4	0.574716
317.5	0.581985
317.6	0.589109
317.7	0.597709
317.8	0.605462
317.9	0.613931
318	0.622356
318.1	0.631952
318.2	0.641035
318.3	0.651098
318.4	0.661016
318.5	0.672308
318.6	0.683542
318.7	0.696413
318.8	0.708349
318.9	0.720855
319	0.731899
319.1	0.744581
319.2	0.755756
319.3	0.767048
319.4	0.77815
319.5	0.789896
319.6	0.800559
319.7	0.810549
319.8	0.820817
319.9	0.830237
320	0.840301
320.1	0.847892
320.2	0.856434
320.3	0.865445
320.4	0.873534
320.5	0.880716
320.6	0.888234
320.7	0.895723
320.8	0.902305
320.9	0.909604
321	0.915002
321.1	0.921993
321.2	0.928502
321.3	0.934178
321.4	0.939956
321.5	0.945411
321.6	0.950502
321.7	0.954568
321.8	0.959483
321.9	0.964412
322	0.969341
322.1	0.973613
322.2	0.976363
322.3	0.979537
322.4	0.981058
322.5	0.983296
322.6	0.985899
322.7	0.989527
322.8	0.99194
322.9	0.994895
323	0.997031
323.1	0.998201
323.2	0.999166
323.3	1
323.4	0.999517
323.5	0.999985
323.6	0.999313
323.7	0.99883
323.8	0.998215
323.9	0.997689
324	0.996504
324.1	0.995656
324.2	0.993974
324.3	0.992438
324.4	0.990712
324.5	0.988649
324.6	0.986031
324.7	0.982345
324.8	0.978337
324.9	0.974008
325	0.969663
325.1	0.965217
325.2	0.961516
325.3	0.957391
325.4	0.953369
325.5	0.948044
325.6	0.943612
325.7	0.938405
325.8	0.933154
325.9	0.928415
326	0.923295
326.1	0.917474
326.2	0.91231
326.3	0.905713
326.4	0.899409
326.5	0.892754
326.6	0.886098
326.7	0.879911
326.8	0.87346
326.9	0.866279
327	0.860194
327.1	0.852822
327.2	0.845142
327.3	0.838531
327.4	0.831568
327.5	0.82443
327.6	0.818024
327.7	0.810461
327.8	0.802972
327.9	0.795761
328	0.787804
328.1	0.779759
328.2	0.773382
328.3	0.765732
328.4	0.757511
328.5	0.750549
328.6	0.742401
328.7	0.733171
328.8	0.725258
328.9	0.716745
329	0.708027
329.1	0.700538
329.2	0.692362
329.3	0.683936
329.4	0.676667
329.5	0.668446
329.6	0.660328
329.7	0.653439
329.8	0.646374
329.9	0.638256
330	0.630591
330.1	0.622693
330.2	0.613975
330.3	0.605696
330.4	0.598353
330.5	0.590513
330.6	0.582263
330.7	0.574672
330.8	0.567197
330.9	0.559152
331	0.551488
331.1	0.544467
331.2	0.536963
331.3	0.529269
331.4	0.521824
331.5	0.514642
331.6	0.50705
331.7	0.499824
331.8	0.492555
331.9	0.48587
332	0.478805
332.1	0.472062
332.2	0.465304
332.3	0.458356
332.4	0.451028
332.5	0.444505
332.6	0.437952
332.7	0.431238
332.8	0.424451
332.9	0.418073
333	0.411637
333.1	0.405201
333.2	0.398912
333.3	0.392944
333.4	0.386947
333.5	0.380701
333.6	0.374704
333.7	0.368882
333.8	0.363002
333.9	0.357166
334	0.351505
334.1	0.345976
334.2	0.340491
334.3	0.335006
334.4	0.329447
334.5	0.323977
334.6	0.318506
334.7	0.313138
334.8	0.307594
334.9	0.30265
335	0.297823
335.1	0.292762
335.2	0.287833
335.3	0.283079
335.4	0.278121
335.5	0.273382
335.6	0.268993
335.7	0.264415
335.8	0.260129
335.9	0.255873
336	0.251338
336.1	0.246877
336.2	0.242796
336.3	0.238861
336.4	0.235014
336.5	0.23127
336.6	0.227555
336.7	0.22362
336.8	0.219612
336.9	0.21559
337	0.211626
337.1	0.207647
337.2	0.20399
337.3	0.200026
337.4	0.196018
337.5	0.192332
337.6	0.188544
337.7	0.184639
337.8	0.181201
337.9	0.177969
338	0.174751
338.1	0.171781
338.2	0.16887
338.3	0.165989
338.4	0.163005
338.5	0.159875
338.6	0.156788
338.7	0.153805
338.8	0.150894
338.9	0.148202
339	0.145448
339.1	0.14304
339.2	0.140511
339.3	0.138244
339.4	0.135913
339.5	0.13371
339.6	0.131347
339.7	0.129025
339.8	0.126626
339.9	0.124193
340	0.121786
340.1	0.119186
340.2	0.116793
340.3	0.114478
340.4	0.112392
340.5	0.110357
340.6	0.108547
340.7	0.106707
340.8	0.104663
340.9	0.102757
341	0.100905
341.1	0.0987772
341.2	0.0967791
341.3	0.0949068
341.4	0.0927405
341.5	0.0907659
341.6	0.0890574
341.7	0.0872949
341.8	0.0856244
341.9	0.0840871
342	0.0824269
342.1	0.0807872
342.2	0.0791622
342.3	0.0776205
342.4	0.0761036
342.5	0.0746146
342.6	0.0732791
342.7	0.0718383
342.8	0.0705277
342.9	0.0692464
343	0.0679929
343.1	0.0666516
343.2	0.0654668
343.3	0.0640684
343.4	0.0627329
343.5	0.0613536
343.6	0.0601717
343.7	0.0589489
343.8	0.0579206
343.9	0.0569303
344	0.0558977
344.1	0.0548079
344.2	0.0537446
344.3	0.0525861
344.4	0.0515168
344.5	0.0504959
344.6	0.0494866
344.7	0.0484978
344.8	0.0476538
344.9	0.0467118
345	0.0459234
345.1	0.0450487
345.2	0.0442033
345.3	0.0432042
345.4	0.0423003
345.5	0.0414651
345.6	0.040662
345.7	0.0397932
345.8	0.0391189
345.9	0.0384972
346	0.0377117
346.1	0.0369175
346.2	0.0363265
346.3	0.0356405
346.4	0.0348653
346.5	0.0342509
346.6	0.0337214
346.7	0.0329667
346.8	0.032307
346.9	0.0316707
347	0.0310081
347.1	0.0304113
347.2	0.0298511
347.3	0.0292411
347.4	0.0286414
347.5	0.0280505
347.6	0.0274815
347.7	0.0269827
347.8	0.0265585
347.9	0.0260744
348	0.0255668
348.1	0.0250549
348.2	0.0246628
348.3	0.0241333
348.4	0.0236389
348.5	0.0231665
348.6	0.0226721
348.7	0.0222377
348.8	0.0217886
348.9	0.0213688
349	0.0210017
349.1	0.0206609
349.2	0.0202528
349.3	0.0198622
349.4	0.0196179
349.5	0.0192098
349.6	0.0187345
349.7	0.0182722
349.8	0.0179841
349.9	0.0175848
350	0.0172878
350.1	0.0170406
350.2	0.0167627
350.3	0.0165067
350.4	0.0162069
350.5	0.0158749
350.6	0.0155487
350.7	0.0152927
350.8	0.0149694
350.9	0.0146345
351	0.014468
351.1	0.0142825
351.2	0.0140511
351.3	0.0137526
351.4	0.0135626
351.5	0.0132841
351.6	0.0130603
351.7	0.0128004
351.8	0.0126054
351.9	0.0124679
352	0.0123051
352.1	0.0120984
352.2	0.0119442
352.3	0.0117749
352.4	0.0115584
352.5	0.0113217
352.6	0.0110723
352.7	0.0108199
352.8	0.0105795
352.9	0.0103581
353	0.0102589
353.1	0.0101039
353.2	0.00997908
353.3	0.0098116
353.4	0.00960521
353.5	0.00941404
353.6	0.0093055
353.7	0.00917678
353.8	0.00904733
353.9	0.00894641
354	0.00881213
354.1	0.00865708
354.2	0.00850452
354.3	0.00840608
354.4	0.00829257
354.5	0.00812904
354.6	0.00803411
354.7	0.00790437
354.8	0.0077932
354.9	0.00764986
355	0.00747257
355.1	0.00741304
355.2	0.00729295
355.3	0.00717506
355.4	0.0070712
355.5	0.00701153
355.6	0.00686189
355.7	0.00679826
355.8	0.00673171
355.9	0.00664482
356	0.00654843
356.1	0.00637949
356.2	0.00630738
356.3	0.00617061
356.4	0.0060925
356.5	0.0060043
356.6	0.00599084
356.7	0.00595237
356.8	0.00591156
356.9	0.0057884
357	0.0057495
357.1	0.00564974
357.2	0.00554749
357.3	0.00547392
357.4	0.00550376
357.5	0.00543501
357.6	0.00536188
357.7	0.00525305
357.8	0.00521794
357.9	0.00506758
358	0.00502662
358.1	0.00495992
358.2	0.00493476
358.3	0.0049216
358.4	0.00494837
358.5	0.00490946
358.6	0.00486236
358.7	0.00472384
358.8	0.004645
358.9	0.00457654
359	0.00450546
359.1	0.00445748
359.2	0.00450677
359.3	0.00441477
359.4	0.00442208
359.5	0.00438741
359.6	0.00439882
359.7	0.00434704
359.8	0.00432861
359.9	0.0043273
360	0.00432174
360.1	0.00427654
360.2	0.00425255
360.3	0.00421657
360.4	0.00414124
360.5	0.00409385
360.6	0.00410804
360.7	0.00407717
360.8	0.00404075
360.9	0.00398619
361	0.00400755
361.1	0.0039565
361.2	0.00392213
361.3	0.00387722
361.4	0.00384387
361.5	0.00381052
361.6	0.00377717
361.7	0.00371047
361.8	0.00367727
361.9	0.00364991
362	0.00363573
362.1	0.00360164
362.2	0.00363412
362.3	0.00366205
362.4	0.0036366
362.5	0.00354869
362.6	0.00354401
362.7	0.0035051
362.8	0.00346985
362.9	0.00345391
363	0.0034523
363.1	0.00349735
363.2	0.00351564
363.3	0.00354211
363.4	0.00353626
363.5	0.00353685
363.6	0.00346649
363.7	0.00341105
363.8	0.00336337
363.9	0.00332592
364	0.00330618
364.1	0.00330457
364.2	0.00342173
364.3	0.00346283
364.4	0.00353948
364.5	0.00357473
364.6	0.00361305
364.7	0.00366176
364.8	0.00371457
364.9	0.00374909
365	0.00377995
365.1	0.00378902
365.2	0.00373036
365.3	0.00366864
365.4	0.00364362
365.5	0.00361013
365.6	0.00355498
365.7	0.00343226
365.8	0.00341646
365.9	0.00332197
366	0.00322631
366.1	0.00314498
366.2	0.00312026
366.3	0.00313913
366.4	0.00316254
366.5	0.00320145
366.6	0.00323977
366.7	0.0032345
366.8	0.00320613
366.9	0.00318331
367	0.00315683
367.1	0.00310417
367.2	0.0030992
367.3	0.00301334
367.4	0.00303148
367.5	0.00299813
367.6	0.00299784
367.7	0.00296039
367.8	0.00295615
367.9	0.00293157
368	0.00296536
368.1	0.0029914
368.2	0.00302299
368.3	0.0030464
368.4	0.0030287
368.5	0.00300061
368.6	0.003017
368.7	0.00299228
368.8	0.00297268
368.9	0.00295425
369	0.0030306
369.1	0.00302943
369.2	0.00307492
369.3	0.00305532
369.4	0.0030638
369.5	0.00302899
369.6	0.00301553
369.7	0.00299462
369.8	0.00301992
369.9	0.00300135
370	0.00302402
370.1	0.0030091
370.2	0.0029854
370.3	0.00295191
370.4	0.00294898
370.5	0.00287862
370.6	0.0029304
370.7	0.00294766
370.8	0.00297019
370.9	0.00295381
371	0.00297429
371.1	0.0029873
371.2	0.00300924
371.3	0.00304025
371.4	0.00305898
371.5	0.00304596
371.6	0.00300427
371.7	0.00297121
371.8	0.00296317
371.9	0.00294752
372	0.00296097
372.1	0.00292909
372.2	0.00299623
372.3	0.00296054
372.4	0.00295366
372.5	0.00292455
372.6	0.00294679
372.7	0.00296434
372.8	0.00297999
372.9	0.00300456
373	0.00301436
373.1	0.00299491
373.2	0.00295629
373.3	0.00295849
373.4	0.00295922
373.5	0.00296639
373.6	0.00296858
373.7	0.0029247
373.8	0.00300778
373.9	0.0030151
374	0.00298818
374.1	0.00297004
374.2	0.00297195
374.3	0.00296024
374.4	0.0029873
374.5	0.00302914
374.6	0.00305283
374.7	0.00309496
374.8	0.00307872
374.9	0.00304508
375	0.00306454
375.1	0.00310066
375.2	0.00307887
375.3	0.00301173
375.4	0.0030739
375.5	0.00302036
375.6	0.00297794
375.7	0.00296346
375.8	0.00299725
375.9	0.00303806
376	0.00307711
376.1	0.0030916
376.2	0.00308691
376.3	0.00309086
376.4	0.00306658
376.5	0.00309876
376.6	0.00312568
376.7	0.00313138
376.8	0.0031384
376.9	0.00308516
377	0.00311866
377.1	0.00308984
377.2	0.00307273
377.3	0.0029952
377.4	0.00299198
377.5	0.00298701
377.6	0.00299023
377.7	0.00302884
377.8	0.00309511
377.9	0.0030739
378	0.00300061
378.1	0.00300617
378.2	0.00303309
378.3	0.00299286
378.4	0.00299389
378.5	0.00298613
378.6	0.0030521
378.7	0.00307317
378.8	0.00314528
378.9	0.00312319
379	0.00318097
379.1	0.00320452
379.2	0.00316385
379.3	0.00316298
379.4	0.00320539
379.5	0.00317775
379.6	0.00313943
379.7	0.00311719
379.8	0.00307009
379.9	0.00303938
380	0.00303104
380.1	0.00297034
380.2	0.00302914
380.3	0.00305473
380.4	0.00307126
380.5	0.00301729
380.6	0.00301978
380.7	0.00304464
380.8	0.00305561
380.9	0.00306585
381	0.00312889
381.1	0.0031324
381.2	0.00309086
381.3	0.00306497
381.4	0.00307609
381.5	0.00302884
381.6	0.00301407
381.7	0.00298394
381.8	0.00307858
381.9	0.00307375
382	0.00313109
382.1	0.00311646
382.2	0.00309935
382.3	0.00305971
382.4	0.00304669
382.5	0.00301232
382.6	0.00306059
382.7	0.00306892
382.8	0.00310374
382.9	0.00314601
383	0.0032092
383.1	0.00318462
383.2	0.00319062
383.3	0.0031112
383.4	0.00316517
383.5	0.00314572
383.6	0.00315127
383.7	0.00315742
383.8	0.0031991
383.9	0.00318916
384	0.00319223
384.1	0.00320569
384.2	0.00322002
384.3	0.00318331
384.4	0.00319516
384.5	0.00320481
384.6	0.00323582
384.7	0.00318594
384.8	0.00321666
384.9	0.00315274
385	0.00316839
385.1	0.00310695
385.2	0.00316064
385.3	0.00308706
385.4	0.00306556
385.5	0.00310549
385.6	0.00318945
385.7	0.00319837
385.8	0.00323611
385.9	0.0032149
386	0.00312334
386.1	0.00304303
386.2	0.00302314
386.3	0.00298262
386.4	0.00298101
386.5	0.0029484
386.6	0.00304523
386.7	0.00302065
386.8	0.0030875
386.9	0.00312714
387	0.00317029
387.1	0.00314279
387.2	0.00314206
387.3	0.00311749
387.4	0.00310052
387.5	0.0030717
387.6	0.00310286
387.7	0.00314191
387.8	0.00320291
387.9	0.0032345
388	0.00326478
388.1	0.00314835
388.2	0.00319121
388.3	0.00312699
388.4	0.00312451
388.5	0.00314513
388.6	0.0032111
388.7	0.00325644
388.8	0.00328789
388.9	0.00323743
389	0.00320349
389.1	0.00314133
389.2	0.00313869
389.3	0.00315947
389.4	0.00322675
389.5	0.00318565
389.6	0.00322368
389.7	0.00314104
389.8	0.00315171
389.9	0.00308165
390	0.00309862
390.1	0.00307799
390.2	0.00308355
390.3	0.00314659
390.4	0.00322631
390.5	0.00325045
390.6	0.00325235
390.7	0.00324898
390.8	0.00321768
390.9	0.00318857
391	0.00321461
391.1	0.00321008
391.2	0.00322002
391.3	0.00308326
391.4	0.00316502
391.5	0.00316268
391.6	0.0032013
391.7	0.00318536
391.8	0.003311
391.9	0.00335532
392	0.00337127
392.1	0.00338633
392.2	0.00333792
392.3	0.00325396
392.4	0.00322265
392.5	0.0031896
392.6	0.00322397
392.7	0.00322851
392.8	0.00322573
392.9	0.00314879
393	0.00322207
393.1	0.00316678
393.2	0.00324928
393.3	0.00327078
393.4	0.00324299
393.5	0.00329945
393.6	0.00331598
393.7	0.00327678
393.8	0.00328102
393.9	0.00328541
394	0.00327034
394.1	0.00329184
394.2	0.00333133
394.3	0.00334933
394.4	0.00335942
394.5	0.00321651
394.6	0.00325469
394.7	0.00316093
394.8	0.00317161
394.9	0.0031779
395	0.00327795
395.1	0.00337609
395.2	0.00343797
395.3	0.00334421
395.4	0.00330106
395.5	0.00326624
395.6	0.003207
395.7	0.00322851
395.8	0.00339584
395.9	0.00340023
396	0.00337843
396.1	0.00324694
396.2	0.00337244
396.3	0.0032446
396.4	0.00327429
396.5	0.00323831
396.6	0.00328775
396.7	0.00328555
396.8	0.0033856
396.9	0.00339803
397	0.00350276
397.1	0.00351213
397.2	0.00348711
397.3	0.00347029
397.4	0.00353509
397.5	0.00350423
397.6	0.00358629
397.7	0.00350891
397.8	0.00365445
397.9	0.00363763
398	0.00363529
398.1	0.0034915
398.2	0.00349721
398.3	0.0035307
398.4	0.00355162
398.5	0.00352895
398.6	0.00354387
398.7	0.00354518
398.8	0.0034662
398.9	0.00338443
399	0.00342363
399.1	0.00340374
399.2	0.00338575
399.3	0.0032756
399.4	0.00344411