File: lasermedia/data/012-ems.txt
# Optical emission spectrum of Ce:LiYF4 (Ce:LiYF4)
# assuming unity concentration per meter.  This data was part of the NASA
# Laser Spectra Database found on the web until December of 2005 which
# was created by Pat Cross working at NASA Langley Research Center, Internal
# Operations Group, Aerospace Electronics Systems Division, Remote Sensing.
#
# The spectra was collected by GA on 15 August 1994 and was
# annotated on  6 April 1995.  The sample name was "" was a 9.990
# long piece of :.
# The incident light was unpolarized.
#
# Spectra were recorded from 279.8nm to 399.4nm
# every 0.1nm at room temperature.  The
# excitation wavelength was unknown.
#
# SLIT WIDTH IS 1500 MICRONS, SAMPLE IS CYLINDRICAL SHAPE. C-AXIS IS CUT PERP. TO LONG AXIS OF CYLINDER. PUMP LIGHT IS ALONG A(=B & LONG AXIS) OF CRYSTAL. POLARIZER AFTER SAMPLE IS PLACED PARALLEL TO THE C-AXIS. (P-POL) CONCENTRATION IS ATOMIC PERCENT. FORMAT(1X,G15.8).
#
##Wavelength (nm)	Absorbance (/meter)
279.8	9.25162e-05
279.9	0.000132642
280	0.000111492
280.1	5.23107e-05
280.2	0.000618123
280.3	0.000660577
280.4	0.000572644
280.5	0.000654362
280.6	0.00088247
280.7	0.000200695
280.8	0
280.9	0
281	0
281.1	0
281.2	0
281.3	0
281.4	0
281.5	0
281.6	0
281.7	0
281.8	0
281.9	0
282	0
282.1	0
282.2	0.000208026
282.3	0.000238061
282.4	0.000179023
282.5	0.000128443
282.6	0
282.7	0
282.8	0
282.9	0
283	0
283.1	0.000100849
283.2	0.000104951
283.3	0
283.4	0
283.5	0
283.6	0
283.7	0
283.8	0
283.9	0
284	0
284.1	0
284.2	0
284.3	0
284.4	7.54051e-05
284.5	9.68233e-05
284.6	0
284.7	0
284.8	0
284.9	0
285	0
285.1	0
285.2	0
285.3	0
285.4	0
285.5	6.23912e-06
285.6	7.46186e-05
285.7	0
285.8	0
285.9	0
286	0
286.1	0
286.2	0
286.3	7.83552e-05
286.4	0.000258665
286.5	0.00012906
286.6	0.000213494
286.7	0.000104598
286.8	0
286.9	0
287	0
287.1	0
287.2	0
287.3	0
287.4	0
287.5	0
287.6	0
287.7	0
287.8	0
287.9	0
288	0
288.1	0
288.2	0
288.3	0
288.4	0.000218192
288.5	0.00029316
288.6	0.000495113
288.7	0.000424533
288.8	0.000384937
288.9	0.000182665
289	0.00044318
289.1	0.000584091
289.2	0.000791025
289.3	0.000623912
289.4	0.000215997
289.5	0
289.6	0
289.7	0
289.8	0
289.9	0
290	0
290.1	0
290.2	0
290.3	0
290.4	0
290.5	0
290.6	3.73953e-06
290.7	5.62051e-06
290.8	7.05274e-05
290.9	1.397e-05
291	2.18856e-05
291.1	0.000264466
291.2	0.000474283
291.3	0.000750907
291.4	0.000872803
291.5	0.00108601
291.6	0.000858485
291.7	0.000748926
291.8	0.000643532
291.9	0.000462646
292	0.000455885
292.1	0.000295307
292.2	0.00026723
292.3	9.74603e-05
292.4	0.00043082
292.5	0.000329233
292.6	0.000397393
292.7	0.000575526
292.8	0.000530782
292.9	0.000328047
293	0.000153875
293.1	0.000183851
293.2	0.000220801
293.3	0.000475184
293.4	0.000550426
293.5	0.000780017
293.6	0.000650744
293.7	0.000496346
293.8	0.000557175
293.9	0.000530237
294	0.000304085
294.1	0.000335852
294.2	0.000313741
294.3	0.00038922
294.4	0.000253315
294.5	0.000523428
294.6	0.000897737
294.7	0.000712284
294.8	0.000432505
294.9	0.000495919
295	0.000489004
295.1	0.000342115
295.2	0.000485848
295.3	0.000570105
295.4	0.000816303
295.5	0.000833871
295.6	0.000743339
295.7	0.000751536
295.8	0.00103894
295.9	0.00114084
296	0.000998007
296.1	0.000887927
296.2	0.000966988
296.3	0.000738547
296.4	0.000484366
296.5	0.000506821
296.6	0.000565716
296.7	0.000559939
296.8	0.000637921
296.9	0.000783516
297	0.00142879
297.1	0.00186057
297.2	0.00220208
297.3	0.00232782
297.4	0.00240326
297.5	0.00217172
297.6	0.00201502
297.7	0.00182036
297.8	0.00173151
297.9	0.00169581
298	0.00170055
298.1	0.00172985
298.2	0.00203068
298.3	0.00238132
298.4	0.00246198
298.5	0.00236531
298.6	0.00278748
298.7	0.00276387
298.8	0.00290479
298.9	0.00297502
299	0.00330407
299.1	0.00343978
299.2	0.00352293
299.3	0.00356812
299.4	0.00400667
299.5	0.00419361
299.6	0.00428958
299.7	0.00465434
299.8	0.00498458
299.9	0.00521126
300	0.00551007
300.1	0.00576024
300.2	0.00639712
300.3	0.00669474
300.4	0.00712688
300.5	0.00760955
300.6	0.00810847
300.7	0.00876243
300.8	0.00944794
300.9	0.010021
301	0.0104897
301.1	0.0111823
301.2	0.0120495
301.3	0.0126154
301.4	0.0133212
301.5	0.0142642
301.6	0.0154599
301.7	0.0163152
301.8	0.0178264
301.9	0.0190755
302	0.0204705
302.1	0.0217931
302.2	0.0233684
302.3	0.0251999
302.4	0.027373
302.5	0.0294738
302.6	0.0318284
302.7	0.0341985
302.8	0.0372376
302.9	0.0407713
303	0.0453643
303.1	0.0501886
303.2	0.0550402
303.3	0.0604671
303.4	0.0665287
303.5	0.0731371
303.6	0.0800444
303.7	0.0881735
303.8	0.095891
303.9	0.104754
304	0.114259
304.1	0.125074
304.2	0.136687
304.3	0.149237
304.4	0.161764
304.5	0.175903
304.6	0.190292
304.7	0.204823
304.8	0.220944
304.9	0.237824
305	0.25513
305.1	0.273612
305.2	0.293196
305.3	0.313456
305.4	0.335081
305.5	0.35578
305.6	0.378484
305.7	0.399931
305.8	0.421449
305.9	0.444509
306	0.467344
306.1	0.488707
306.2	0.512254
306.3	0.536025
306.4	0.556891
306.5	0.579583
306.6	0.600152
306.7	0.620816
306.8	0.640958
306.9	0.663543
307	0.684503
307.1	0.704764
307.2	0.726721
307.3	0.747301
307.4	0.765569
307.5	0.783161
307.6	0.799803
307.7	0.814097
307.8	0.827015
307.9	0.841332
308	0.857916
308.1	0.875317
308.2	0.891106
308.3	0.906479
308.4	0.915981
308.5	0.924581
308.6	0.933145
308.7	0.941188
308.8	0.950238
308.9	0.960523
309	0.968233
309.1	0.975339
309.2	0.98127
309.3	0.986797
309.4	0.991388
309.5	0.995267
309.6	0.997129
309.7	0.998197
309.8	0.997592
309.9	1
310	0.998802
310.1	0.998446
310.2	0.998316
310.3	0.995836
310.4	0.991305
310.5	0.988707
310.6	0.983725
310.7	0.976015
310.8	0.970392
310.9	0.966466
311	0.959728
311.1	0.956644
311.2	0.95146
311.3	0.945719
311.4	0.936443
311.5	0.930037
311.6	0.921117
311.7	0.914818
311.8	0.908733
311.9	0.900773
312	0.893644
312.1	0.885056
312.2	0.8768
312.3	0.868342
312.4	0.860003
312.5	0.847157
312.6	0.838177
312.7	0.830241
312.8	0.820811
312.9	0.812318
313	0.80577
313.1	0.797715
313.2	0.78806
313.3	0.777917
313.4	0.769092
313.5	0.759021
313.6	0.749342
313.7	0.742094
313.8	0.735688
313.9	0.726982
314	0.719876
314.1	0.710991
314.2	0.699924
314.3	0.690921
314.4	0.683104
314.5	0.676058
314.6	0.668881
314.7	0.663365
314.8	0.655038
314.9	0.648537
315	0.641337
315.1	0.634161
315.2	0.626154
315.3	0.621231
315.4	0.613876
315.5	0.607969
315.6	0.602845
315.7	0.598337
315.8	0.590816
315.9	0.586404
316	0.581066
316.1	0.575882
316.2	0.568931
316.3	0.56485
316.4	0.559524
316.5	0.555147
316.6	0.550367
316.7	0.548053
316.8	0.544863
316.9	0.541517
317	0.537579
317.1	0.535515
317.2	0.531458
317.3	0.528635
317.4	0.526002
317.5	0.524733
317.6	0.52223
317.7	0.521364
317.8	0.518944
317.9	0.517971
318	0.516358
318.1	0.515966
318.2	0.514306
318.3	0.513653
318.4	0.512586
318.5	0.512218
318.6	0.511435
318.7	0.51338
318.8	0.515385
318.9	0.517295
319	0.518256
319.1	0.520023
319.2	0.520688
319.3	0.52115
319.4	0.521209
319.5	0.522526
319.6	0.524258
319.7	0.526334
319.8	0.528279
319.9	0.530177
320	0.532514
320.1	0.534021
320.2	0.534365
320.3	0.535681
320.4	0.538125
320.5	0.53994
320.6	0.541612
320.7	0.544234
320.8	0.546037
320.9	0.547555
321	0.548991
321.1	0.550687
321.2	0.552917
321.3	0.55555
321.4	0.558101
321.5	0.559904
321.6	0.5616
321.7	0.562335
321.8	0.563617
321.9	0.565099
322	0.566191
322.1	0.568136
322.2	0.569619
322.3	0.570746
322.4	0.571446
322.5	0.572952
322.6	0.574233
322.7	0.575692
322.8	0.577519
322.9	0.578978
323	0.580354
323.1	0.580639
323.2	0.582121
323.3	0.583094
323.4	0.583984
323.5	0.585087
323.6	0.585763
323.7	0.585811
323.8	0.585977
323.9	0.586238
324	0.586273
324.1	0.586973
324.2	0.587175
324.3	0.586309
324.4	0.585372
324.5	0.584589
324.6	0.584185
324.7	0.582027
324.8	0.580983
324.9	0.579998
325	0.579464
325.1	0.578243
325.2	0.578753
325.3	0.579049
325.4	0.578444
325.5	0.57638
325.6	0.575253
325.7	0.573426
325.8	0.571102
325.9	0.570769
326	0.570212
326.1	0.568444
326.2	0.56676
326.3	0.564981
326.4	0.561754
326.5	0.558919
326.6	0.556274
326.7	0.554162
326.8	0.55166
326.9	0.549892
327	0.548101
327.1	0.545906
327.2	0.544186
327.3	0.542075
327.4	0.53892
327.5	0.536132
327.6	0.533665
327.7	0.529869
327.8	0.527117
327.9	0.524519
328	0.52096
328.1	0.517508
328.2	0.514994
328.3	0.510984
328.4	0.507082
328.5	0.504057
328.6	0.500747
328.7	0.497248
328.8	0.494532
328.9	0.491044
329	0.486548
329.1	0.482598
329.2	0.479135
329.3	0.475267
329.4	0.471638
329.5	0.468565
329.6	0.465208
329.7	0.461175
329.8	0.457723
329.9	0.454319
330	0.451033
330.1	0.447593
330.2	0.443572
330.3	0.438875
330.4	0.43528
330.5	0.430535
330.6	0.426099
330.7	0.421686
330.8	0.41789
330.9	0.413146
331	0.409279
331.1	0.405471
331.2	0.401995
331.3	0.398152
331.4	0.394415
331.5	0.39145
331.6	0.387215
331.7	0.382731
331.8	0.378781
331.9	0.375033
332	0.370774
332.1	0.366587
332.2	0.36285
332.3	0.358888
332.4	0.354808
332.5	0.350763
332.6	0.347429
332.7	0.343551
332.8	0.340028
332.9	0.335923
333	0.33208
333.1	0.327477
333.2	0.323397
333.3	0.319245
333.4	0.315817
333.5	0.31208
333.6	0.308759
333.7	0.305295
333.8	0.301025
333.9	0.296577
334	0.292627
334.1	0.289032
334.2	0.285272
334.3	0.281962
334.4	0.278997
334.5	0.275415
334.6	0.27169
334.7	0.268191
334.8	0.264193
334.9	0.260255
335	0.256708
335.1	0.253054
335.2	0.249437
335.3	0.246412
335.4	0.243482
335.5	0.240113
335.6	0.237076
335.7	0.234372
335.8	0.231086
335.9	0.227468
336	0.22423
336.1	0.221228
336.2	0.217646
336.3	0.214586
336.4	0.211881
336.5	0.209188
336.6	0.206152
336.7	0.203186
336.8	0.200482
336.9	0.197386
337	0.194527
337.1	0.191502
337.2	0.188821
337.3	0.185725
337.4	0.183044
337.5	0.180399
337.6	0.178098
337.7	0.175547
337.8	0.173258
337.9	0.170755
338	0.167908
338.1	0.164931
338.2	0.162203
338.3	0.159593
338.4	0.157161
338.5	0.154718
338.6	0.152559
338.7	0.150412
338.8	0.148312
338.9	0.145975
339	0.143674
339.1	0.141266
339.2	0.13881
339.3	0.136225
339.4	0.133745
339.5	0.131575
339.6	0.129416
339.7	0.127435
339.8	0.125679
339.9	0.123995
340	0.122061
340.1	0.120104
340.2	0.118104
340.3	0.115984
340.4	0.114082
340.5	0.112377
340.6	0.110464
340.7	0.108484
340.8	0.106563
340.9	0.1046
341	0.102728
341.1	0.101001
341.2	0.0995089
341.3	0.0980309
341.4	0.0964615
341.5	0.0947819
341.6	0.0930808
341.7	0.0913561
341.8	0.0896195
341.9	0.0878271
342	0.0863289
342.1	0.0848568
342.2	0.0833136
342.3	0.0819767
342.4	0.0807763
342.5	0.0793564
342.6	0.07808
342.7	0.0767526
342.8	0.0753731
342.9	0.0740006
343	0.0726377
343.1	0.071372
343.2	0.0701988
343.3	0.0689568
343.4	0.067843
343.5	0.0666995
343.6	0.0654433
343.7	0.0642215
343.8	0.0630863
343.9	0.061823
344	0.0605763
344.1	0.0595443
344.2	0.058364
344.3	0.0572738
344.4	0.0564257
344.5	0.0555764
344.6	0.054612
344.7	0.0539014
344.8	0.053064
344.9	0.0520355
345	0.0511233
345.1	0.050242
345.2	0.049344
345.3	0.0484354
345.4	0.047554
345.5	0.0467605
345.6	0.0459088
345.7	0.0450155
345.8	0.044216
345.9	0.0434497
346	0.0425103
346.1	0.0416835
346.2	0.0409528
346.3	0.0401283
346.4	0.0393395
346.5	0.0386586
346.6	0.0380121
346.7	0.0372731
346.8	0.0366243
346.9	0.0359659
347	0.0353657
347.1	0.0347607
347.2	0.0341878
347.3	0.0336386
347.4	0.0330526
347.5	0.0323421
347.6	0.0317786
347.7	0.0312175
347.8	0.0306588
347.9	0.0300135
348	0.0295058
348.1	0.0289969
348.2	0.0284881
348.3	0.0280005
348.4	0.0275616
348.5	0.02701
348.6	0.0265249
348.7	0.0259424
348.8	0.0253648
348.9	0.024863
349	0.0245664
349.1	0.0240409
349.2	0.0235926
349.3	0.0231418
349.4	0.0227444
349.5	0.0222996
349.6	0.0218476
349.7	0.0215167
349.8	0.0212439
349.9	0.0209058
350	0.0204681
350.1	0.0200743
350.2	0.0197409
350.3	0.0193542
350.4	0.0189853
350.5	0.0188003
350.6	0.0185796
350.7	0.0182368
350.8	0.0178987
350.9	0.0175737
351	0.0172499
351.1	0.0169474
351.2	0.0166117
351.3	0.0163863
351.4	0.0162036
351.5	0.0159024
351.6	0.0156604
351.7	0.0154907
351.8	0.0152357
351.9	0.0149961
352	0.0147078
352.1	0.0144409
352.2	0.0141883
352.3	0.0139427
352.4	0.0136153
352.5	0.0134493
352.6	0.0132535
352.7	0.0131053
352.8	0.0128479
352.9	0.0126296
353	0.0123947
353.1	0.0121504
353.2	0.0118965
353.3	0.011752
353.4	0.0116494
353.5	0.0114711
353.6	0.0112691
353.7	0.01106
353.8	0.0108842
353.9	0.0106574
354	0.0104561
354.1	0.0102887
354.2	0.0101123
354.3	0.00994876
354.4	0.0097936
354.5	0.00969858
354.6	0.00958293
354.7	0.00940511
354.8	0.00921153
354.9	0.00914901
355	0.00896467
355.1	0.00884866
355.2	0.0087151
355.3	0.00861213
355.4	0.00844962
355.5	0.00830407
355.6	0.00819637
355.7	0.00819506
355.8	0.00816837
355.9	0.00801796
356	0.00789863
356.1	0.00774217
356.2	0.00759413
356.3	0.00740753
356.4	0.00732225
356.5	0.00723696
356.6	0.0071442
356.7	0.00705523
356.8	0.00700731
356.9	0.00696081
357	0.00685867
357.1	0.00671597
357.2	0.00656983
357.3	0.00642867
357.4	0.00632796
357.5	0.00630341
357.6	0.00629356
357.7	0.00621053
357.8	0.0060976
357.9	0.00593782
358	0.0058224
358.1	0.00575823
358.2	0.00574696
358.3	0.00574838
358.4	0.00577151
358.5	0.00569014
358.6	0.00554162
358.7	0.00536464
358.8	0.00527698
358.9	0.00517319
359	0.00512265
359.1	0.00511898
359.2	0.00513013
359.3	0.00506714
359.4	0.00500119
359.5	0.00493867
359.6	0.00488802
359.7	0.00479989
359.8	0.00473891
359.9	0.00480522
360	0.0047898
360.1	0.00475683
360.2	0.00473203
360.3	0.00471448
360.4	0.0046337
360.5	0.00464117
360.6	0.00460547
360.7	0.00460001
360.8	0.00462456
360.9	0.00456063
361	0.00451187
361.1	0.00444782
361.2	0.00438803
361.3	0.00430168
361.4	0.0041999
361.5	0.00412078
361.6	0.00409504
361.7	0.00409777
361.8	0.00405969
361.9	0.00407238
362	0.00403537
362.1	0.00400192
362.2	0.00395329
362.3	0.00387856
362.4	0.00385317
362.5	0.00380323
362.6	0.00384677
362.7	0.00379944
362.8	0.00384107
362.9	0.0038164
363	0.00378734
363.1	0.00376171
363.2	0.0037629
363.3	0.00373348
363.4	0.00372423
363.5	0.00370169
363.6	0.00364535
363.7	0.003617
363.8	0.00356587
363.9	0.00355899
364	0.00360964
364.1	0.00365958
364.2	0.00376349
364.3	0.00382636
364.4	0.00388176
364.5	0.00394534
364.6	0.00398828
364.7	0.00407416
364.8	0.00416135
364.9	0.00417546
365	0.00419765
365.1	0.00416681
365.2	0.00410097
365.3	0.00407416
365.4	0.00405969
365.5	0.0039521
365.6	0.00390845
365.7	0.00374226
365.8	0.00364238
365.9	0.00356457
366	0.00347726
366.1	0.00335816
366.2	0.00338509
366.3	0.0033826
366.4	0.00336255
366.5	0.00343432
366.6	0.0034794
366.7	0.00344393
366.8	0.00342258
366.9	0.003417
367	0.00333764
367.1	0.00334488
367.2	0.00342827
367.3	0.00344405
367.4	0.00342008
367.5	0.00341261
367.6	0.00333361
367.7	0.00327133
367.8	0.00323954
367.9	0.00329791
368	0.00330882
368.1	0.00328972
368.2	0.00320087
368.3	0.0031552
368.4	0.00308771
368.5	0.0030915
368.6	0.00314583
368.7	0.00321523
368.8	0.00319091
368.9	0.00313563
369	0.0032074
369.1	0.00319826
369.2	0.00307241
369.3	0.00305616
369.4	0.00307419
369.5	0.00299578
369.6	0.00300871
369.7	0.00310847
369.8	0.00314097
369.9	0.00311641
370	0.00312745
370.1	0.00313516
370.2	0.0031004
370.3	0.00304073
370.4	0.0030367
370.5	0.00299673
370.6	0.00291084
370.7	0.00289329
370.8	0.00292318
370.9	0.00292567
371	0.00293065
371.1	0.00308984
371.2	0.00313373
371.3	0.00313848
371.4	0.00314204
371.5	0.00316529
371.6	0.00308391
371.7	0.00312519
371.8	0.00313836
371.9	0.00315971
372	0.00306078
372.1	0.00296126
372.2	0.0029354
372.3	0.00288724
372.4	0.00283884
372.5	0.00290823
372.6	0.0030367
372.7	0.00308771
372.8	0.00314251
372.9	0.00314654
373	0.00311143
373.1	0.00303694
373.2	0.00300954
373.3	0.00303172
373.4	0.00304702
373.5	0.00307015
373.6	0.00306754
373.7	0.0029991
373.8	0.00291025
373.9	0.00288119
374	0.00290681
374.1	0.0028927
374.2	0.00292188
374.3	0.00298475
374.4	0.00301642
374.5	0.00300871
374.6	0.0030246
374.7	0.00300112
374.8	0.00297715
374.9	0.00300894
375	0.00302496
375.1	0.00305283
375.2	0.00310052
375.3	0.00309625
375.4	0.00310491
375.5	0.00310443
375.6	0.00301879
375.7	0.00294513
375.8	0.00296861
375.9	0.0029902
376	0.00304346
376.1	0.00314239
376.2	0.00317288
376.3	0.00313966
376.4	0.00307252
376.5	0.00306351
376.6	0.00309791
376.7	0.00310977
376.8	0.00313421
376.9	0.00317181
377	0.00361996
377.1	0.0050427
377.2	0.00694278
377.3	0.00851878
377.4	0.00957629
377.5	0.00959076
377.6	0.00825686
377.7	0.00637861
377.8	0.0047681
377.9	0.00371367
378	0.00323338
378.1	0.00303682
378.2	0.00307596
378.3	0.00308676
378.4	0.00308569
378.5	0.00309115
378.6	0.00319933
378.7	0.00316896
378.8	0.00316754
378.9	0.00307525
379	0.00297122
379.1	0.00295675
379.2	0.00299056
379.3	0.00308332
379.4	0.00314631
379.5	0.00321582
379.6	0.00318225
379.7	0.0031673
379.8	0.00313705
379.9	0.00317205
380	0.00316256
380.1	0.0031265
380.2	0.00306019
380.3	0.0030437
380.4	0.00302377
380.5	0.00300408
380.6	0.00300017
380.7	0.00311535
380.8	0.00310491
380.9	0.00312413
381	0.00317798
381.1	0.00323207
381.2	0.00317134
381.3	0.00317015
381.4	0.00317217
381.5	0.00313539
381.6	0.00310005
381.7	0.00306529
381.8	0.00309103
381.9	0.00306885
382	0.00308439
382.1	0.0031074
382.2	0.00309589
382.3	0.00310776
382.4	0.00312116
382.5	0.00318391
382.6	0.00315698
382.7	0.00314631
382.8	0.00312069
382.9	0.00312875
383	0.00304714
383.1	0.00309589
383.2	0.00310562
383.3	0.00310432
383.4	0.00311381
383.5	0.00315176
383.6	0.00306304
383.7	0.00301416
383.8	0.00293481
383.9	0.00291844
384	0.00283576
384.1	0.00283564
384.2	0.0028373
384.3	0.00285711
384.4	0.00289198
384.5	0.00299364
384.6	0.0030641
384.7	0.00310894
384.8	0.00321226
384.9	0.00320597
385	0.00324109
385.1	0.00317513
385.2	0.00319506
385.3	0.00309589
385.4	0.00303255
385.5	0.00298866
385.6	0.00303231
385.7	0.00301926
385.8	0.00304382
385.9	0.00305722
386	0.00302128
386.1	0.00298083
386.2	0.0029781
386.3	0.00301369
386.4	0.00306458
386.5	0.00305687
386.6	0.00312187
386.7	0.00312069
386.8	0.00302401
386.9	0.00291191
387	0.00291476
387.1	0.00298593
387.2	0.00303552
387.3	0.00311523
387.4	0.00326493
387.5	0.00329968
387.6	0.00320953
387.7	0.00310052
387.8	0.00309091
387.9	0.00297407
388	0.00291713
388.1	0.00291405
388.2	0.00299317
388.3	0.00294999
388.4	0.00300989
388.5	0.00300218
388.6	0.00301808
388.7	0.00303682
388.8	0.00305971
388.9	0.00301037
389	0.0030284
389.1	0.00298973
389.2	0.003001
389.3	0.00308
389.4	0.00309874
389.5	0.00302176
389.6	0.00303896
389.7	0.00299186
389.8	0.00296624
389.9	0.00297276
390	0.00303409
390.1	0.0029749
390.2	0.00297265
390.3	0.00290527
390.4	0.00288498
390.5	0.00290598
390.6	0.00290835
390.7	0.00294999
390.8	0.0030246
390.9	0.00306731
391	0.00305912
391.1	0.00309388
391.2	0.00306956
391.3	0.00302009
391.4	0.00297478
391.5	0.00302199
391.6	0.00304465
391.7	0.00293291
391.8	0.00291974
391.9	0.00301049
392	0.00297656
392.1	0.00295912
392.2	0.00303801
392.3	0.00309269
392.4	0.00307656
392.5	0.0030437
392.6	0.0030456
392.7	0.00305995
392.8	0.00296055
392.9	0.00292994
393	0.00305829
393.1	0.00311511
393.2	0.003138
393.3	0.00327477
393.4	0.00325852
393.5	0.00324334
393.6	0.00323136
393.7	0.0031641
393.8	0.00308012
393.9	0.00310159
394	0.0030023
394.1	0.00292852
394.2	0.00296861
394.3	0.00291037
394.4	0.00285248
394.5	0.00286458
394.6	0.0029851
394.7	0.0030144
394.8	0.00307561
394.9	0.00308462
395	0.00308617
395.1	0.00303433
395.2	0.00300112
395.3	0.0029698
395.4	0.00295794
395.5	0.00291144
395.6	0.00287028
395.7	0.00286102
395.8	0.00298617
395.9	0.00302401
396	0.00302508
396.1	0.00300977
396.2	0.0030609
396.3	0.00287514
396.4	0.00284121
396.5	0.00284347
396.6	0.00293172
396.7	0.00298937
396.8	0.00314192
396.9	0.00323717
397	0.003331
397.1	0.00327976
397.2	0.00329909
397.3	0.0032845
397.4	0.00327798
397.5	0.00323931
397.6	0.00333302
397.7	0.0033348
397.8	0.00338402
397.9	0.00331333
398	0.00333468
398.1	0.00328059
398.2	0.00315686
398.3	0.00319945
398.4	0.00328723
398.5	0.00325781
398.6	0.00322436
398.7	0.00328379
398.8	0.00326588
398.9	0.00324144
399	0.00333076
399.1	0.00328925
399.2	0.00323456
399.3	0.0030488
399.4	0.00303575