File: lasermedia/data/050-abs.txt
# Optical absorption spectrum of Program fragment delivered error ``Can't call method "sample_" on an undefined value at abs.template line 1.'':GSGG (Nd:GaScGa Garnet)
# assuming unity concentration per meter.  This data was part of the NASA
# Laser Spectra Database found on the web until December of 2005 which
# was created by Pat Cross working at NASA Langley Research Center, Internal
# Operations Group, Aerospace Electronics Systems Division, Remote Sensing.
#
# The spectra was collected by MS on 22 January 1988 and was
# annotated on 28 January 1988.  The sample name was "" was a 3.2000
# long piece of :.
# The incident light was unpolarized.
#
# Spectra were recorded from 325 to 830nm
# every 0.2nm at room temperature.
#
# FILE NAME ON PE-3600 = 001 GSGG2.SP ON PC = 001GSGG2.SP NO_POINTS = 2526. pts DATA_INTV = 0.000200 µm MIN_LAMBDA = 0.325000 µm MIN_DATA = 2794.9 MAX_LAMBDA = 0.830000 µm MAX_DATA = 82670.0 SCANSPEED = .01500000 µm/min SLITWIDTH= 0.00020 µmITA = 0. RESP = 0.5 sec ISMS = 0. DATE=88/01/22 INST = 509. ? = 0. THIS ND:CR:GSGG SAMPLE WAS OBTAINED FROM ALLIED. IT IS A SLICED CROSS-SECTION FROM A BOULE. THE MATERIAL COMPOSITION IS CR-2.47at.% (2*10(20)ions/cm3),ND-1.65 at.% (2*10(20)). converted to AU by Mark Storm. header added by hand. ND:CR:GSGG,.125IN THICK,HIGH RES., STORM.
#
##Wavelength (nm)	Absorbance (/meter)
325	6311
325.4	6304
325.8	6468
326.2	6824
326.6	7077
327	7094
327.4	7075
327.8	7219
328.2	7420
328.6	7515
329	7331
329.4	7362
329.8	7448
330.2	7974
330.6	8380
331	8007
331.4	8024
331.8	8120
332.2	8287
332.6	8522
333	8456
333.4	8506
333.8	8957
334.2	8269
334.6	7813
335	7493
335.4	7182
335.8	6913
336.2	6425
336.6	6226
337	6022
337.4	5799
337.8	5625
338.2	5517
338.6	5436
339	5337
339.4	5284
339.8	5238
340.2	5237
340.6	5257
341	5507
341.4	5550
341.8	5419
342.2	5449
342.6	5438
343	5520
343.4	5571
343.8	5672
344.2	5976
344.6	6628
345	6263
345.4	5771
345.8	5597
346.2	5467
346.6	5708
347	5738
347.4	5906
347.8	6610
348.2	6681
348.6	6306
349	6313
349.4	6541
349.8	7192
350.2	7101
350.6	7237
351	7606
351.4	8519
351.8	11668
352.2	12513
352.6	12353
353	19804
353.4	25591
353.8	21969
354.2	21281
354.6	19302
355	20440
355.4	17726
355.8	12804
356.2	12021
356.6	10851
357	9811
357.4	8771
357.8	8368
358.2	7943
358.6	7940
359	8388
359.4	7554
359.8	8544
360.2	16799
360.6	12847
361	12091
361.4	13461
361.8	7805
362.2	10402
362.6	15341
363	8327
363.4	13505
363.8	9526
364.2	6422
364.6	7472
365	5876
365.4	4959
365.8	4701
366.2	4580
366.6	4482
367	4367
367.4	4372
367.8	4413
368.2	4270
368.6	4396
369	4346
369.4	4266
369.8	4284
370.2	4143
370.6	4168
371	4181
371.4	4283
371.8	4240
372.2	4144
372.6	4197
373	4165
373.4	4194
373.8	4217
374.2	4128
374.6	4197
375	4245
375.4	4226
375.8	4177
376.2	4168
376.6	4173
377	4247
377.4	4370
377.8	4408
378.2	4245
378.6	4256
379	4146
379.4	4036
379.8	4036
380.2	4074
380.6	4066
381	4066
381.4	4132
381.8	4145
382.2	4022
382.6	4135
383	4212
383.4	4159
383.8	4363
384.2	4273
384.6	4360
385	4217
385.4	4431
385.8	4390
386.2	4382
386.6	4489
387	4476
387.4	4456
387.8	4553
388.2	4551
388.6	4583
389	4606
389.4	4639
389.8	4735
390.2	4766
390.6	4844
391	4876
391.4	4901
391.8	5042
392.2	5010
392.6	5098
393	5259
393.4	5305
393.8	5399
394.2	5370
394.6	5484
395	5574
395.4	5674
395.8	5806
396.2	5924
396.6	6028
397	6124
397.4	6200
397.8	6317
398.2	6479
398.6	6598
399	6649
399.4	6860
399.8	6941
400.2	7061
400.6	7273
401	7434
401.4	7584
401.8	7733
402.2	7928
402.6	8067
403	8339
403.4	8479
403.8	8672
404.2	8895
404.6	9092
405	9279
405.4	9507
405.8	9666
406.2	9909
406.6	10156
407	10356
407.4	10595
407.8	10834
408.2	11140
408.6	11373
409	11706
409.4	11895
409.8	12240
410.2	12507
410.6	12830
411	13168
411.4	13544
411.8	13820
412.2	14169
412.6	14493
413	14781
413.4	15225
413.8	15514
414.2	15940
414.6	16295
415	16728
415.4	17099
415.8	17568
416.2	17894
416.6	18314
417	18670
417.4	19121
417.8	19606
418.2	19990
418.6	20538
419	20952
419.4	21480
419.8	21927
420.2	22459
420.6	23072
421	23409
421.4	24032
421.8	24659
422.2	25012
422.6	25593
423	25983
423.4	26644
423.8	27122
424.2	27736
424.6	28216
425	28829
425.4	29303
425.8	29796
426.2	30427
426.6	30968
427	31519
427.4	32054
427.8	32637
428.2	33344
428.6	34006
429	34654
429.4	35239
429.8	35756
430.2	36402
430.6	37020
431	38093
431.4	42171
431.8	38995
432.2	39405
432.6	40071
433	41529
433.4	44808
433.8	42445
434.2	42891
434.6	44257
435	43889
435.4	44445
435.8	45516
436.2	47903
436.6	46694
437	46709
437.4	47342
437.8	47771
438.2	48333
438.6	48864
439	49444
439.4	50092
439.8	50606
440.2	51170
440.6	51641
441	52200
441.4	52872
441.8	53308
442.2	53713
442.6	54190
443	54787
443.4	55115
443.8	55742
444.2	56156
444.6	56723
445	57234
445.4	57532
445.8	58065
446.2	58429
446.6	58880
447	59179
447.4	59761
447.8	59959
448.2	60333
448.6	60832
449	61224
449.4	61438
449.8	61905
450.2	62287
450.6	62644
451	63042
451.4	63346
451.8	63758
452.2	63828
452.6	64110
453	64539
453.4	64758
453.8	65353
454.2	65851
454.6	66204
455	66126
455.4	66048
455.8	65971
456.2	66405
456.6	66606
457	66688
457.4	66892
457.8	66852
458.2	66771
458.6	67183
459	68741
459.4	69430
459.8	68034
460.2	67020
460.6	66735
461	66176
461.4	65903
461.8	65904
462.2	65673
462.6	65789
463	65984
463.4	65146
463.8	64668
464.2	64380
464.6	64345
465	63957
465.4	63576
465.8	63543
466.2	63305
466.6	63171
467	62938
467.4	62545
467.8	62709
468.2	62417
468.6	62289
469	62162
469.4	61910
469.8	62005
470.2	61755
470.6	61849
471	61663
471.4	61819
471.8	62520
472.2	61977
472.6	61328
473	61328
473.4	61359
473.8	61027
474.2	61361
474.6	60643
475	59671
475.4	60152
475.8	60010
476.2	58854
476.6	58616
477	58459
477.4	58200
477.8	58539
478.2	57970
478.6	56905
479	56501
479.4	56715
479.8	59265
480.2	59651
480.6	59764
481	56316
481.4	55383
481.8	54987
482.2	55971
482.6	55384
483	55341
483.4	55520
483.8	55165
484.2	54904
484.6	53892
485	53227
485.4	52299
485.8	51999
486.2	51907
486.6	51523
487	50988
487.4	50433
487.8	49548
488.2	48986
488.6	48578
489	48119
489.4	47656
489.8	47104
490.2	46511
490.6	46195
491	45669
491.4	45080
491.8	44660
492.2	44151
492.6	43691
493	43171
493.4	42677
493.8	42185
494.2	41640
494.6	41153
495	40494
495.4	39946
495.8	39404
496.2	38859
496.6	38311
497	37743
497.4	37217
497.8	36723
498.2	36224
498.6	35897
499	35637
499.4	35358
499.8	34774
500.2	34019
500.6	33308
501	32662
501.4	32142
501.8	31699
502.2	31284
502.6	30794
503	30292
503.4	29838
503.8	29439
504.2	29011
504.6	28452
505	28003
505.4	27549
505.8	27230
506.2	26784
506.6	26382
507	25900
507.4	25516
507.8	25122
508.2	24758
508.6	24492
509	24315
509.4	24195
509.8	24346
510.2	25120
510.6	27398
511	26571
511.4	23867
511.8	22866
512.2	22779
512.6	23003
513	22415
513.4	22268
513.8	22249
514.2	22401
514.6	22778
515	24037
515.4	23660
515.8	21017
516.2	19571
516.6	19545
517	19227
517.4	18398
517.8	17178
518.2	16455
518.6	16407
519	17053
519.4	18101
519.8	16437
520.2	15448
520.6	14604
521	14159
521.4	13541
521.8	13045
522.2	12688
522.6	12460
523	12389
523.4	12479
523.8	12131
524.2	11778
524.6	11558
525	11417
525.4	11784
525.8	13442
526.2	21501
526.6	32588
527	16511
527.4	11973
527.8	10716
528.2	10267
528.6	10620
529	12282
529.4	19085
529.8	28938
530.2	23615
530.6	16430
531	13712
531.4	12038
531.8	9298
532.2	9604
532.6	12906
533	10360
533.4	9282
533.8	8976
534.2	10090
534.6	11817
535	13953
535.4	13378
535.8	10458
536.2	8274
536.6	8162
537	9212
537.4	9665
537.8	8019
538.2	6902
538.6	6513
539	6343
539.4	6423
539.8	7091
540.2	6647
540.6	6061
541	5743
541.4	5593
541.8	5568
542.2	5479
542.6	5370
543	5399
543.4	5308
543.8	5291
544.2	5331
544.6	5204
545	5193
545.4	5200
545.8	5122
546.2	5163
546.6	5158
547	5246
547.4	5377
547.8	5970
548.2	6412
548.6	5406
549	5233
549.4	5143
549.8	5159
550.2	5153
550.6	5202
551	5237
551.4	5406
551.8	5424
552.2	5549
552.6	5391
553	5329
553.4	5337
553.8	5309
554.2	5423
554.6	5694
555	5614
555.4	5537
555.8	5508
556.2	5558
556.6	5680
557	5693
557.4	5813
557.8	5797
558.2	5955
558.6	5958
559	6004
559.4	6014
559.8	6131
560.2	6257
560.6	6366
561	6297
561.4	6465
561.8	6545
562.2	6590
562.6	6584
563	6750
563.4	6782
563.8	6941
564.2	7162
564.6	7307
565	7418
565.4	7559
565.8	7741
566.2	7925
566.6	7970
567	8171
567.4	8342
567.8	8826
568.2	10039
568.6	12667
569	21675
569.4	45574
569.8	25690
570.2	13788
570.6	10852
571	10131
571.4	10194
571.8	10829
572.2	12666
572.6	19603
573	21080
573.4	14610
573.8	12221
574.2	11714
574.6	12043
575	12543
575.4	11422
575.8	10886
576.2	10922
576.6	11147
577	11430
577.4	12242
577.8	13242
578.2	14725
578.6	20168
579	23359
579.4	15994
579.8	13688
580.2	13309
580.6	14295
581	14614
581.4	14400
581.8	15417
582.2	18383
582.6	18661
583	18433
583.4	16792
583.8	16405
584.2	17716
584.6	19504
585	19178
585.4	20698
585.8	28899
586.2	31114
586.6	21949
587	21085
587.4	25380
587.8	41699
588.2	82670
588.6	44842
589	27717
589.4	28028
589.8	27043
590.2	21652
590.6	19932
591	20241
591.4	24821
591.8	39991
592.2	26413
592.6	19815
593	18675
593.4	19155
593.8	21338
594.2	23065
594.6	22066
595	21247
595.4	20439
595.8	19623
596.2	18716
596.6	18857
597	19614
597.4	19694
597.8	19136
598.2	18493
598.6	18051
599	18070
599.4	18237
599.8	18334
600.2	18802
600.6	19437
601	19731
601.4	19184
601.8	18980
602.2	19026
602.6	19208
603	19439
603.4	19572
603.8	19709
604.2	19800
604.6	19970
605	20283
605.4	20537
605.8	20813
606.2	20721
606.6	20831
607	20957
607.4	21213
607.8	21389
608.2	21566
608.6	21726
609	21948
609.4	22107
609.8	22314
610.2	22465
610.6	22708
611	22874
611.4	23142
611.8	23247
612.2	23475
612.6	23806
613	24253
613.4	24189
613.8	24164
614.2	24305
614.6	24524
615	25011
615.4	25199
615.8	25177
616.2	25231
616.6	25398
617	25553
617.4	25764
617.8	25899
618.2	26096
618.6	26237
619	26471
619.4	26693
619.8	26771
620.2	26972
620.6	27195
621	27351
621.4	27356
621.8	27696
622.2	27716
622.6	27928
623	27923
623.4	28110
623.8	28310
624.2	28438
624.6	28765
625	29510
625.4	29376
625.8	29886
626.2	29590
626.6	29568
627	29433
627.4	29506
627.8	29535
628.2	29614
628.6	29830
629	29928
629.4	30131
629.8	30108
630.2	30201
630.6	30436
631	30448
631.4	30413
631.8	30544
632.2	30586
632.6	30639
633	30808
633.4	31050
633.8	30862
634.2	30802
634.6	30785
635	30869
635.4	30821
635.8	30948
636.2	31218
636.6	31218
637	31317
637.4	31323
637.8	31448
638.2	31373
638.6	31473
639	31393
639.4	31430
639.8	31624
640.2	31505
640.6	31675
641	31606
641.4	31682
641.8	31626
642.2	31557
642.6	31613
643	31645
643.4	31595
643.8	31564
644.2	31558
644.6	31502
645	31483
645.4	31446
645.8	31372
646.2	31422
646.6	31323
647	31305
647.4	31323
647.8	31206
648.2	31213
648.6	31152
649	31170
649.4	31073
649.8	31006
650.2	31079
650.6	30988
651	30970
651.4	30879
651.8	30916
652.2	30862
652.6	30808
653	30551
653.4	30456
653.8	30362
654.2	30222
654.6	30187
655	30089
655.4	30002
655.8	29756
656.2	29563
656.6	29558
657	29401
657.4	29351
657.8	29020
658.2	29020
658.6	28900
659	28700
659.4	28625
659.8	28433
660.2	28306
660.6	28181
661	28097
661.4	28045
661.8	27875
662.2	27746
662.6	27644
663	27523
663.4	27553
663.8	27407
664.2	27262
664.6	27252
665	27133
665.4	26892
665.8	26732
666.2	26654
666.6	26510
667	26220
667.4	26135
667.8	25911
668.2	25796
668.6	25667
669	25512
669.4	25390
669.8	25241
670.2	25085
670.6	25368
671	25682
671.4	25614
671.8	24958
672.2	24461
672.6	24183
673	24196
673.4	24095
673.8	23969
674.2	24155
674.6	24587
675	25115
675.4	25754
675.8	27134
676.2	27070
676.6	25227
677	24335
677.4	24017
677.8	23705
678.2	23763
678.6	23913
679	23980
679.4	24323
679.8	24426
680.2	23968
680.6	23952
681	24133
681.4	24897
681.8	24277
682.2	23546
682.6	24150
683	25790
683.4	25892
683.8	22764
684.2	21601
684.6	20979
685	20614
685.4	20415
685.8	20461
686.2	20805
686.6	20823
687	20075
687.4	19751
687.8	19571
688.2	19415
688.6	18989
689	18688
689.4	18701
689.8	18197
690.2	17821
690.6	17539
691	17638
691.4	17521
691.8	17126
692.2	16765
692.6	16716
693	16811
693.4	17153
693.8	16846
694.2	16400
694.6	16066
695	15871
695.4	15640
695.8	15322
696.2	15014
696.6	14747
697	14461
697.4	14247
697.8	14052
698.2	13828
698.6	13577
699	13320
699.4	13118
699.8	12961
700.2	12854
700.6	12685
701	12373
701.4	12195
701.8	12005
702.2	11861
702.6	11674
703	11433
703.4	11349
703.8	11133
704.2	10981
704.6	10846
705	10663
705.4	10576
705.8	10408
706.2	10287
706.6	10212
707	10075
707.4	9929
707.8	9784
708.2	9668
708.6	9580
709	9404
709.4	9325
709.8	9287
710.2	9129
710.6	9019
711	8924
711.4	8845
711.8	8717
712.2	8632
712.6	8615
713	8408
713.4	8247
713.8	8223
714.2	8051
714.6	7970
715	7814
715.4	7727
715.8	7663
716.2	7542
716.6	7554
717	7482
717.4	7325
717.8	7280
718.2	7165
718.6	7075
719	7021
719.4	6922
719.8	6783
720.2	6834
720.6	6622
721	6525
721.4	6507
721.8	6467
722.2	6447
722.6	6348
723	6345
723.4	6215
723.8	6089
724.2	6116
724.6	6043
725	6044
725.4	6151
725.8	5965
726.2	6058
726.6	6138
727	6078
727.4	6138
727.8	6255
728.2	6216
728.6	6346
729	6329
729.4	6233
729.8	6351
730.2	6248
730.6	6233
731	6320
731.4	6480
731.8	6622
732.2	6783
732.6	6989
733	7435
733.4	8099
733.8	9425
734.2	12704
734.6	20152
735	31711
735.4	31158
735.8	21957
736.2	19760
736.6	27202
737	40813
737.4	47298
737.8	28728
738.2	16397
738.6	10663
739	8519
739.4	7801
739.8	7661
740.2	8320
740.6	9603
741	9651
741.4	8803
741.8	8826
742.2	10773
742.6	16234
743	28194
743.4	31476
743.8	24327
744.2	19510
744.6	18120
745	14006
745.4	12390
745.8	13940
746.2	17267
746.6	21935
747	30674
747.4	39367
747.8	39012
748.2	19262
748.6	12182
749	10975
749.4	10723
749.8	11802
750.2	15153
750.6	18086
751	21399
751.4	24915
751.8	23871
752.2	19736
752.6	15749
753	15130
753.4	17755
753.8	18170
754.2	15877
754.6	11696
755	9194
755.4	8549
755.8	9064
756.2	10776
756.6	15174
757	22554
757.4	21704
757.8	15140
758.2	12105
758.6	12942
759	13494
759.4	11156
759.8	8492
760.2	7024
760.6	6157
761	5892
761.4	5959
761.8	6412
762.2	6502
762.6	5874
763	5064
763.4	4477
763.8	4167
764.2	4066
764.6	4006
765	3741
765.4	3595
765.8	3439
766.2	3363
766.6	3459
767	3247
767.4	3337
767.8	3354
768.2	3279
768.6	3296
769	3290
769.4	3235
769.8	3331
770.2	3242
770.6	3279
771	3188
771.4	3426
771.8	3340
772.2	3337
772.6	3173
773	3238
773.4	3307
773.8	3380
774.2	3403
774.6	3345
775	3354
775.4	3328
775.8	3307
776.2	3488
776.6	3380
777	3456
777.4	3600
777.8	3835
778.2	3919
778.6	4029
779	4605
779.4	5583
779.8	6560
780.2	7083
780.6	6897
781	6472
781.4	5435
781.8	4636
782.2	4302
782.6	4103
783	4090
783.4	3831
783.8	3969
784.2	4132
784.6	4130
785	4211
785.4	4480
785.8	4727
786.2	5035
786.6	5410
787	5931
787.4	5889
787.8	5462
788.2	5378
788.6	5314
789	5269
789.4	5421
789.8	5912
790.2	6247
790.6	7062
791	7949
791.4	8958
791.8	10662
792.2	13482
792.6	20098
793	22198
793.4	16924
793.8	12481
794.2	11547
794.6	15014
795	26503
795.4	45857
795.8	33739
796.2	18869
796.6	12820
797	10910
797.4	11542
797.8	14295
798.2	11877
798.6	8971
799	8875
799.4	10717
799.8	12086
800.2	10852
800.6	9403
801	8904
801.4	9730
801.8	12729
802.2	14521
802.6	15153
803	18865
803.4	27634
803.8	43374
804.2	57287
804.6	46155
805	28974
805.4	20516
805.8	17633
806.2	19910
806.6	29415
807	54306
807.4	72683
807.8	40576
808.2	24834
808.6	22981
809	23005
809.4	21973
809.8	19975
810.2	19382
810.6	23415
811	26802
811.4	20619
811.8	14567
812.2	11207
812.6	9852
813	9908
813.4	11423
813.8	15458
814.2	18343
814.6	17647
815	19858
815.4	19217
815.8	13847
816.2	9383
816.6	7539
817	7064
817.4	7661
817.8	9702
818.2	12654
818.6	12222
819	8743
819.4	6098
819.8	5184
820.2	5065
820.6	5402
821	5630
821.4	5298
821.8	4558
822.2	3994
822.6	3888
823	3879
823.4	4067
823.8	4268
824.2	4302
824.6	3862
825	3607
825.4	3469
825.8	3283
826.2	3159
826.6	3128
827	3187
827.4	2844
827.8	2982
828.2	2968
828.6	3171
829	3069
829.4	3005
829.8	2794
830	2841