File: lasermedia/data/051-abs.txt
# Optical absorption spectrum of Program fragment delivered error ``Can't call method "sample_" on an undefined value at abs.template line 1.'':GLASS (Nd:Q98 Glass)
# assuming unity concentration per meter.  This data was part of the NASA
# Laser Spectra Database found on the web until December of 2005 which
# was created by Pat Cross working at NASA Langley Research Center, Internal
# Operations Group, Aerospace Electronics Systems Division, Remote Sensing.
#
# The spectra was collected by MS on 22 January 1988 and was
# annotated on 28 January 1988.  The sample name was "" was a 1.8500
# long piece of :.
# The incident light was unpolarized.
#
# Spectra were recorded from 325 to 830nm
# every 0.2nm at room temperature.
#
# FILE NAME ON PE-3600 = 001 GLAS5.SP ON PC = 001GLAS5.SP NO_POINTS = 2526. pts DATA_INTV = 0.000200 µm MIN_LAMBDA = 0.325000 µm MIN_DATA = 0. MAX_LAMBDA = 0.830000 µm MAX_DATA = 31842.0 SCANSPEED = .015 æm/min SLITWIDTH= 0.00020 µmITA = 0. RESP = 0.5 sec ISMS = 0. DATE=88/01/22 INST = 509. ? = 0. ND:GLASS SAMPLE FROM KIGRE CORP. Q-98 GLASS. THE MATERIAL IS SUPPOSE TO BE 3wt.% ND (CONVERSATION WITH J. MEYERS INDICATE 3wt.% APPROX. 3*10(20)IONS/CM3. ND2O3. converted to AU by Mark Storm. header added by hand. Q-98KIGRE ND:GLASS,SAMEAS1-4,HIGHRES, STORM.
#
##Wavelength (nm)	Absorbance (/meter)
325	6506
325.4	6309
325.8	6298
326.2	6179
326.6	6141
327	6110
327.4	6075
327.8	5912
328.2	5853
328.6	5838
329	5596
329.4	5559
329.8	5404
330.2	5210
330.6	5132
331	5005
331.4	4770
331.8	4559
332.2	4423
332.6	4198
333	3885
333.4	3724
333.8	3503
334.2	3194
334.6	3031
335	2780
335.4	2763
335.8	2467
336.2	2411
336.6	2239
337	2161
337.4	2142
337.8	2084
338.2	2091
338.6	1989
339	2010
339.4	1899
339.8	1967
340.2	1846
340.6	1751
341	1835
341.4	1776
341.8	1731
342.2	1694
342.6	1603
343	1593
343.4	1692
343.8	1673
344.2	1573
344.6	1626
345	1670
345.4	1924
345.8	2298
346.2	3127
346.6	4288
347	5952
347.4	7237
347.8	8104
348.2	8318
348.6	8336
349	8641
349.4	9493
349.8	10489
350.2	10813
350.6	10166
351	9009
351.4	8119
351.8	7371
352.2	7222
352.6	7227
353	7512
353.4	7479
353.8	7350
354.2	7403
354.6	8178
355	9400
355.4	10596
355.8	10701
356.2	10662
356.6	10361
357	9933
357.4	9111
357.8	8243
358.2	6782
358.6	5259
359	4071
359.4	3213
359.8	2548
360.2	2118
360.6	1749
361	1389
361.4	1167
361.8	906
362.2	753
362.6	531
363	532
363.4	374
363.8	201
364.2	289
364.6	227
365	229
365.4	154
365.8	122
366.2	77
366.6	49
367	64
367.4	79
367.8	164
368.2	74
368.6	85
369	173
369.4	76
369.8	76
370.2	1
370.6	1
371	95
371.4	52
371.8	9
372.2	78
372.6	45
373	75
373.4	10
373.8	110
374.2	40
374.6	1
375	85
375.4	46
375.8	64
376.2	1
376.6	1
377	14
377.4	113
377.8	1
378.2	1
378.6	20
379	1
379.4	54
379.8	81
380.2	10
380.6	80
381	108
381.4	82
381.8	104
382.2	48
382.6	61
383	31
383.4	70
383.8	106
384.2	20
384.6	8
385	13
385.4	1
385.8	1
386.2	43
386.6	1
387	44
387.4	30
387.8	1
388.2	39
388.6	69
389	55
389.4	1
389.8	1
390.2	1
390.6	1
391	1
391.4	13
391.8	31
392.2	56
392.6	1
393	71
393.4	54
393.8	38
394.2	8
394.6	1
395	51
395.4	1
395.8	1
396.2	7
396.6	1
397	16
397.4	1
397.8	1
398.2	12
398.6	1
399	1
399.4	3
399.8	1
400.2	1
400.6	1
401	1
401.4	55
401.8	1
402.2	4
402.6	54
403	44
403.4	1
403.8	40
404.2	25
404.6	1
405	1
405.4	1
405.8	24
406.2	1
406.6	1
407	1
407.4	1
407.8	1
408.2	1
408.6	18
409	1
409.4	1
409.8	14
410.2	1
410.6	7
411	39
411.4	29
411.8	1
412.2	30
412.6	1
413	32
413.4	1
413.8	33
414.2	23
414.6	1
415	61
415.4	13
415.8	59
416.2	47
416.6	73
417	85
417.4	138
417.8	63
418.2	104
418.6	148
419	148
419.4	108
419.8	120
420.2	138
420.6	195
421	160
421.4	181
421.8	222
422.2	139
422.6	137
423	114
423.4	82
423.8	73
424.2	99
424.6	73
425	121
425.4	63
425.8	57
426.2	133
426.6	113
427	202
427.4	259
427.8	622
428.2	1184
428.6	1704
429	1656
429.4	1319
429.8	1123
430.2	1043
430.6	932
431	786
431.4	822
431.8	861
432.2	908
432.6	867
433	817
433.4	650
433.8	549
434.2	459
434.6	295
435	232
435.4	229
435.8	168
436.2	132
436.6	121
437	119
437.4	81
437.8	121
438.2	50
438.6	3
439	85
439.4	101
439.8	37
440.2	56
440.6	90
441	30
441.4	71
441.8	69
442.2	40
442.6	71
443	51
443.4	60
443.8	100
444.2	62
444.6	101
445	69
445.4	103
445.8	107
446.2	78
446.6	180
447	85
447.4	109
447.8	125
448.2	181
448.6	151
449	153
449.4	160
449.8	228
450.2	230
450.6	258
451	334
451.4	303
451.8	408
452.2	423
452.6	490
453	495
453.4	561
453.8	585
454.2	624
454.6	672
455	722
455.4	737
455.8	769
456.2	818
456.6	850
457	861
457.4	949
457.8	1014
458.2	1030
458.6	1070
459	1098
459.4	1105
459.8	1141
460.2	1186
460.6	1175
461	1204
461.4	1236
461.8	1208
462.2	1189
462.6	1151
463	1176
463.4	1150
463.8	1118
464.2	1067
464.6	1119
465	1104
465.4	1073
465.8	1105
466.2	1114
466.6	1081
467	1122
467.4	1090
467.8	1120
468.2	1130
468.6	1155
469	1273
469.4	1358
469.8	1403
470.2	1381
470.6	1499
471	1587
471.4	1563
471.8	1432
472.2	1408
472.6	1360
473	1300
473.4	1332
473.8	1393
474.2	1498
474.6	1502
475	1626
475.4	1726
475.8	1848
476.2	1869
476.6	1915
477	1921
477.4	1770
477.8	1702
478.2	1525
478.6	1341
479	1193
479.4	1061
479.8	938
480.2	880
480.6	827
481	755
481.4	669
481.8	634
482.2	555
482.6	520
483	477
483.4	370
483.8	413
484.2	323
484.6	320
485	284
485.4	232
485.8	262
486.2	197
486.6	203
487	136
487.4	164
487.8	149
488.2	102
488.6	132
489	108
489.4	102
489.8	137
490.2	117
490.6	121
491	124
491.4	105
491.8	114
492.2	91
492.6	126
493	143
493.4	160
493.8	216
494.2	230
494.6	247
495	292
495.4	369
495.8	370
496.2	447
496.6	539
497	581
497.4	655
497.8	742
498.2	837
498.6	917
499	992
499.4	1056
499.8	1142
500.2	1215
500.6	1255
501	1350
501.4	1407
501.8	1435
502.2	1535
502.6	1577
503	1629
503.4	1693
503.8	1745
504.2	1832
504.6	1899
505	1961
505.4	2037
505.8	2151
506.2	2255
506.6	2468
507	2563
507.4	2736
507.8	2985
508.2	3270
508.6	3585
509	3870
509.4	4265
509.8	4635
510.2	4985
510.6	5363
511	5613
511.4	5776
511.8	5723
512.2	5554
512.6	5331
513	5071
513.4	4801
513.8	4561
514.2	4324
514.6	4223
515	4123
515.4	4037
515.8	4039
516.2	3975
516.6	3879
517	3714
517.4	3608
517.8	3453
518.2	3385
518.6	3324
519	3340
519.4	3476
519.8	3750
520.2	4240
520.6	4871
521	5498
521.4	6118
521.8	6696
522.2	7344
522.6	8137
523	8975
523.4	9524
523.8	9752
524.2	9705
524.6	9401
525	9057
525.4	8708
525.8	8256
526.2	7869
526.6	7541
527	7201
527.4	6893
527.8	6578
528.2	6156
528.6	5695
529	5235
529.4	4853
529.8	4504
530.2	4232
530.6	4042
531	3852
531.4	3674
531.8	3560
532.2	3441
532.6	3138
533	2922
533.4	2723
533.8	2473
534.2	2195
534.6	2035
535	1773
535.4	1601
535.8	1396
536.2	1245
536.6	1158
537	975
537.4	936
537.8	845
538.2	730
538.6	677
539	681
539.4	661
539.8	625
540.2	539
540.6	547
541	521
541.4	484
541.8	509
542.2	470
542.6	449
543	479
543.4	481
543.8	453
544.2	487
544.6	458
545	436
545.4	426
545.8	404
546.2	434
546.6	443
547	453
547.4	418
547.8	436
548.2	428
548.6	368
549	381
549.4	337
549.8	403
550.2	383
550.6	380
551	329
551.4	349
551.8	314
552.2	375
552.6	353
553	320
553.4	329
553.8	357
554.2	314
554.6	292
555	308
555.4	321
555.8	296
556.2	318
556.6	300
557	330
557.4	292
557.8	266
558.2	345
558.6	356
559	321
559.4	372
559.8	334
560.2	346
560.6	351
561	363
561.4	384
561.8	462
562.2	494
562.6	453
563	526
563.4	528
563.8	604
564.2	656
564.6	705
565	856
565.4	949
565.8	1081
566.2	1316
566.6	1549
567	1818
567.4	2255
567.8	2875
568.2	3770
568.6	5053
569	6906
569.4	9178
569.8	11758
570.2	14166
570.6	15793
571	16579
571.4	16686
571.8	16393
572.2	16254
572.6	16458
573	17055
573.4	18097
573.8	18915
574.2	19642
574.6	20171
575	20735
575.4	21339
575.8	21908
576.2	22505
576.6	22991
577	23477
577.4	24129
577.8	24881
578.2	25654
578.6	26256
579	26465
579.4	26651
579.8	26892
580.2	27469
580.6	28402
581	29375
581.4	30266
581.8	30920
582.2	31389
582.6	31841
583	31754
583.4	31310
583.8	30486
584.2	29130
584.6	27370
585	25549
585.4	23695
585.8	22037
586.2	20656
586.6	19481
587	18454
587.4	17644
587.8	16777
588.2	15843
588.6	14959
589	14060
589.4	13297
589.8	12561
590.2	11896
590.6	11323
591	10773
591.4	10292
591.8	9718
592.2	9297
592.6	8899
593	8465
593.4	8026
593.8	7582
594.2	7115
594.6	6651
595	6123
595.4	5531
595.8	5055
596.2	4556
596.6	3997
597	3520
597.4	3176
597.8	2865
598.2	2504
598.6	2290
599	2038
599.4	1841
599.8	1716
600.2	1563
600.6	1418
601	1305
601.4	1214
601.8	1059
602.2	913
602.6	780
603	701
603.4	551
603.8	427
604.2	439
604.6	357
605	322
605.4	319
605.8	252
606.2	225
606.6	211
607	208
607.4	175
607.8	167
608.2	179
608.6	190
609	149
609.4	191
609.8	166
610.2	142
610.6	205
611	137
611.4	117
611.8	109
612.2	140
612.6	143
613	158
613.4	133
613.8	112
614.2	166
614.6	135
615	171
615.4	79
615.8	128
616.2	153
616.6	158
617	170
617.4	120
617.8	179
618.2	186
618.6	190
619	159
619.4	205
619.8	175
620.2	224
620.6	270
621	246
621.4	342
621.8	390
622.2	470
622.6	422
623	405
623.4	416
623.8	377
624.2	423
624.6	395
625	453
625.4	487
625.8	438
626.2	495
626.6	502
627	507
627.4	509
627.8	429
628.2	490
628.6	426
629	499
629.4	422
629.8	474
630.2	425
630.6	519
631	453
631.4	464
631.8	414
632.2	439
632.6	319
633	357
633.4	323
633.8	410
634.2	365
634.6	309
635	279
635.4	300
635.8	339
636.2	303
636.6	308
637	329
637.4	262
637.8	247
638.2	235
638.6	231
639	240
639.4	241
639.8	240
640.2	175
640.6	239
641	197
641.4	195
641.8	177
642.2	228
642.6	198
643	175
643.4	148
643.8	186
644.2	197
644.6	174
645	204
645.4	194
645.8	188
646.2	238
646.6	148
647	160
647.4	172
647.8	168
648.2	146
648.6	105
649	142
649.4	155
649.8	164
650.2	189
650.6	172
651	160
651.4	156
651.8	111
652.2	180
652.6	194
653	143
653.4	163
653.8	166
654.2	147
654.6	186
655	101
655.4	141
655.8	142
656.2	191
656.6	190
657	203
657.4	177
657.8	104
658.2	214
658.6	206
659	187
659.4	121
659.8	147
660.2	163
660.6	140
661	202
661.4	194
661.8	180
662.2	205
662.6	149
663	222
663.4	271
663.8	157
664.2	202
664.6	245
665	175
665.4	246
665.8	265
666.2	208
666.6	210
667	255
667.4	274
667.8	319
668.2	353
668.6	414
669	370
669.4	409
669.8	433
670.2	487
670.6	516
671	566
671.4	622
671.8	586
672.2	695
672.6	653
673	754
673.4	731
673.8	855
674.2	785
674.6	855
675	925
675.4	883
675.8	954
676.2	921
676.6	1001
677	1089
677.4	1026
677.8	1076
678.2	1180
678.6	1212
679	1191
679.4	1259
679.8	1368
680.2	1403
680.6	1449
681	1470
681.4	1567
681.8	1544
682.2	1627
682.6	1664
683	1691
683.4	1647
683.8	1692
684.2	1704
684.6	1736
685	1668
685.4	1700
685.8	1531
686.2	1431
686.6	1390
687	1221
687.4	1239
687.8	1104
688.2	1102
688.6	1021
689	910
689.4	865
689.8	797
690.2	728
690.6	734
691	641
691.4	656
691.8	638
692.2	528
692.6	550
693	560
693.4	484
693.8	518
694.2	393
694.6	415
695	450
695.4	406
695.8	320
696.2	341
696.6	294
697	301
697.4	288
697.8	271
698.2	365
698.6	278
699	212
699.4	238
699.8	258
700.2	264
700.6	216
701	278
701.4	218
701.8	178
702.2	238
702.6	218
703	190
703.4	222
703.8	224
704.2	252
704.6	237
705	292
705.4	203
705.8	315
706.2	266
706.6	221
707	229
707.4	171
707.8	311
708.2	241
708.6	254
709	251
709.4	310
709.8	274
710.2	237
710.6	233
711	232
711.4	235
711.8	231
712.2	241
712.6	267
713	333
713.4	281
713.8	203
714.2	304
714.6	297
715	245
715.4	324
715.8	253
716.2	364
716.6	349
717	300
717.4	297
717.8	322
718.2	349
718.6	327
719	319
719.4	337
719.8	302
720.2	389
720.6	338
721	378
721.4	384
721.8	453
722.2	442
722.6	505
723	471
723.4	493
723.8	573
724.2	638
724.6	510
725	642
725.4	675
725.8	665
726.2	753
726.6	837
727	825
727.4	865
727.8	970
728.2	1114
728.6	1213
729	1289
729.4	1325
729.8	1569
730.2	1722
730.6	2009
731	2354
731.4	2754
731.8	3364
732.2	4077
732.6	4939
733	6235
733.4	7817
733.8	9485
734.2	11307
734.6	12843
735	13978
735.4	14548
735.8	14523
736.2	14125
736.6	13816
737	13577
737.4	13596
737.8	13814
738.2	14123
738.6	14444
739	15024
739.4	15371
739.8	15687
740.2	15874
740.6	15913
741	15820
741.4	15753
741.8	15886
742.2	15994
742.6	16361
743	16923
743.4	17780
743.8	18890
744.2	20019
744.6	21095
745	21573
745.4	21933
745.8	21638
746.2	21433
746.6	20965
747	20151
747.4	19598
747.8	18967
748.2	18561
748.6	18115
749	17770
749.4	17263
749.8	16758
750.2	16024
750.6	15116
751	14133
751.4	13248
751.8	12144
752.2	11145
752.6	10205
753	9565
753.4	8922
753.8	8247
754.2	7769
754.6	7374
755	6920
755.4	6534
755.8	6218
756.2	5849
756.6	5510
757	5150
757.4	4930
757.8	4664
758.2	4444
758.6	4084
759	3900
759.4	3683
759.8	3390
760.2	3234
760.6	2923
761	2719
761.4	2613
761.8	2339
762.2	2289
762.6	2202
763	1983
763.4	1883
763.8	1764
764.2	1611
764.6	1537
765	1513
765.4	1407
765.8	1283
766.2	1339
766.6	1138
767	1169
767.4	1084
767.8	1013
768.2	997
768.6	956
769	909
769.4	795
769.8	723
770.2	754
770.6	644
771	702
771.4	737
771.8	599
772.2	688
772.6	579
773	465
773.4	520
773.8	610
774.2	737
774.6	524
775	492
775.4	545
775.8	562
776.2	484
776.6	616
777	626
777.4	626
777.8	671
778.2	731
778.6	841
779	756
779.4	817
779.8	1064
780.2	1035
780.6	1111
781	1330
781.4	1422
781.8	1411
782.2	1738
782.6	1881
783	2070
783.4	2162
783.8	2208
784.2	2551
784.6	2505
785	2604
785.4	2783
785.8	3003
786.2	3154
786.6	3374
787	3596
787.4	3828
787.8	3989
788.2	4177
788.6	4517
789	4818
789.4	5208
789.8	5635
790.2	6199
790.6	6644
791	7245
791.4	7973
791.8	8728
792.2	9168
792.6	10029
793	10975
793.4	12025
793.8	12961
794.2	13920
794.6	14658
795	15756
795.4	16635
795.8	17291
796.2	17835
796.6	18934
797	19541
797.4	20342
797.8	20998
798.2	21506
798.6	21978
799	22965
799.4	24480
799.8	26298
800.2	28236
800.6	30174
801	31311
801.4	31424
801.8	30988
802.2	29959
802.6	28499
803	26764
803.4	25150
803.8	23573
804.2	21898
804.6	20734
805	19431
805.4	18442
805.8	17452
806.2	16725
806.6	15726
807	15071
807.4	14041
807.8	13352
808.2	12352
808.6	11628
809	10807
809.4	10236
809.8	9599
810.2	9000
810.6	8570
811	8191
811.4	7730
811.8	7386
812.2	7060
812.6	6886
813	6546
813.4	6175
813.8	6136
814.2	6175
814.6	5838
815	5572
815.4	5300
815.8	5168
816.2	5094
816.6	4885
817	4574
817.4	4547
817.8	4208
818.2	4198
818.6	4025
819	3582
819.4	3547
819.8	3295
820.2	3421
820.6	3132
821	2845
821.4	2812
821.8	2699
822.2	2243
822.6	2297
823	2149
823.4	1987
823.8	1738
824.2	1758
824.6	1607
825	1524
825.4	1342
825.8	1256
826.2	1258
826.6	1028
827	1071
827.4	1045
827.8	987
828.2	906
828.6	877
829	812
829.4	810
829.8	630
830	666