File: lasermedia/data/053-abs.txt
# Optical absorption spectrum of Program fragment delivered error ``Can't call method "sample_" on an undefined value at abs.template line 1.'':YLF (Nd:LiYF4)
# assuming unity concentration per meter.  This data was part of the NASA
# Laser Spectra Database found on the web until December of 2005 which
# was created by Pat Cross working at NASA Langley Research Center, Internal
# Operations Group, Aerospace Electronics Systems Division, Remote Sensing.
#
# The spectra was collected by MS on  5 January 1988 and was
# annotated on 28 January 1988.  The sample name was "" was a 4.1000
# long piece of :.
# The incident light had unknown polarization.
#
# Spectra were recorded from 325 to 830nm
# every 0.2nm at room temperature.
#
# FILE NAME ON PE-3600 = 001 NYLF5.SP ON PC = 001NYLF5.SP NO_POINTS = 2526. pts DATA_INTV = 0.000200 µm MIN_LAMBDA = 0.325000 µm MIN_DATA = 0. MAX_LAMBDA = 0.830000 µm MAX_DATA = 34350.0 SCANSPEED = .015 µm/min SLITWIDTH= 0.00010 µmITA = 0. RESP = 1.0 sec ISMS = 0. DATE=88/01/05 INST = 509. ? = 0. POLARIZED ND:YLF SPECTRA. CRYSTALS FROM AIRTRON. PLASTIC POLARIZERS USED. ONLY 95% POLARIZED AT 810NM. MORE POL. AT SHORTER WAVELENGTHS TO 400. LESS POLARIZED LONGER THAN 810NM AND SHORTER THAN 400NM. STORM converted by Mark Storm. header added by hand. ND:YLF,AIRTRON,.162 IN THICK,A-AXIS,PERP. TO AWIND.
#
##Wavelength (nm)	Absorbance (/meter)
325	1609
325.4	1821
325.8	1523
326.2	2622
326.6	1804
327	2203
327.4	1964
327.8	2103
328.2	2486
328.6	1831
329	2110
329.4	1737
329.8	1736
330.2	1592
330.6	1206
331	1616
331.4	507
331.8	323
332.2	1178
332.6	1015
333	740
333.4	783
333.8	541
334.2	379
334.6	428
335	100
335.4	261
335.8	1
336.2	616
336.6	748
337	98
337.4	134
337.8	617
338.2	850
338.6	1054
339	131
339.4	585
339.8	235
340.2	723
340.6	212
341	507
341.4	608
341.8	1411
342.2	257
342.6	1127
343	1534
343.4	980
343.8	873
344.2	625
344.6	745
345	1186
345.4	1066
345.8	1847
346.2	3068
346.6	4174
347	5508
347.4	3402
347.8	2980
348.2	2296
348.6	3040
349	3086
349.4	4150
349.8	6574
350.2	6452
350.6	6606
351	4394
351.4	3630
351.8	3003
352.2	3112
352.6	3337
353	3586
353.4	2280
353.8	2936
354.2	2887
354.6	4913
355	3863
355.4	5373
355.8	14340
356.2	8803
356.6	4941
357	2492
357.4	3118
357.8	1942
358.2	1734
358.6	1079
359	977
359.4	85
359.8	402
360.2	513
360.6	342
361	804
361.4	479
361.8	281
362.2	1
362.6	248
363	1
363.4	437
363.8	1
364.2	1
364.6	152
365	6
365.4	1
365.8	401
366.2	90
366.6	306
367	239
367.4	226
367.8	103
368.2	74
368.6	760
369	856
369.4	399
369.8	4
370.2	373
370.6	608
371	495
371.4	590
371.8	271
372.2	1
372.6	965
373	1
373.4	437
373.8	927
374.2	1
374.6	1
375	462
375.4	650
375.8	24
376.2	480
376.6	1
377	1
377.4	1170
377.8	318
378.2	1410
378.6	905
379	863
379.4	23
379.8	127
380.2	1
380.6	104
381	1
381.4	155
381.8	303
382.2	1
382.6	560
383	61
383.4	211
383.8	395
384.2	1
384.6	1
385	290
385.4	450
385.8	453
386.2	142
386.6	1
387	359
387.4	86
387.8	358
388.2	142
388.6	40
389	99
389.4	62
389.8	590
390.2	1
390.6	255
391	361
391.4	1
391.8	171
392.2	203
392.6	1
393	377
393.4	67
393.8	97
394.2	93
394.6	367
395	146
395.4	116
395.8	236
396.2	101
396.6	1
397	61
397.4	1
397.8	1
398.2	1
398.6	186
399	94
399.4	98
399.8	1
400.2	31
400.6	1
401	33
401.4	1
401.8	1
402.2	42
402.6	132
403	165
403.4	99
403.8	1
404.2	1
404.6	311
405	1
405.4	1
405.8	81
406.2	246
406.6	179
407	1
407.4	1
407.8	12
408.2	94
408.6	1
409	1
409.4	1
409.8	145
410.2	1
410.6	37
411	316
411.4	1
411.8	144
412.2	1
412.6	16
413	1
413.4	1
413.8	1
414.2	1
414.6	1
415	28
415.4	1
415.8	41
416.2	41
416.6	1
417	91
417.4	1
417.8	1
418.2	223
418.6	183
419	23
419.4	1
419.8	1
420.2	121
420.6	1
421	1
421.4	1
421.8	207
422.2	1
422.6	1
423	1
423.4	151
423.8	1
424.2	1
424.6	142
425	295
425.4	262
425.8	83
426.2	1
426.6	264
427	135
427.4	1576
427.8	766
428.2	120
428.6	1
429	249
429.4	208
429.8	363
430.2	1
430.6	35
431	33
431.4	1
431.8	110
432.2	89
432.6	1
433	1
433.4	1
433.8	1
434.2	1
434.6	1
435	1
435.4	1
435.8	1
436.2	1
436.6	1
437	1
437.4	1
437.8	1
438.2	1
438.6	1
439	16
439.4	1
439.8	113
440.2	1
440.6	1
441	1
441.4	1
441.8	74
442.2	1
442.6	1
443	1
443.4	1
443.8	1
444.2	1
444.6	1
445	28
445.4	1
445.8	1
446.2	52
446.6	1
447	1
447.4	131
447.8	144
448.2	1
448.6	164
449	1
449.4	112
449.8	1
450.2	1
450.6	176
451	256
451.4	149
451.8	20
452.2	186
452.6	73
453	347
453.4	390
453.8	580
454.2	639
454.6	965
455	1232
455.4	1445
455.8	1163
456.2	775
456.6	880
457	740
457.4	774
457.8	693
458.2	786
458.6	991
459	1033
459.4	1116
459.8	982
460.2	991
460.6	587
461	770
461.4	492
461.8	280
462.2	533
462.6	448
463	552
463.4	497
463.8	612
464.2	519
464.6	402
465	242
465.4	12
465.8	147
466.2	277
466.6	363
467	238
467.4	327
467.8	512
468.2	337
468.6	708
469	949
469.4	608
469.8	147
470.2	347
470.6	281
471	312
471.4	255
471.8	323
472.2	294
472.6	357
473	502
473.4	487
473.8	475
474.2	1032
474.6	3579
475	2341
475.4	1135
475.8	632
476.2	578
476.6	651
477	1036
477.4	2177
477.8	3538
478.2	1521
478.6	648
479	602
479.4	713
479.8	350
480.2	354
480.6	233
481	140
481.4	196
481.8	1
482.2	85
482.6	1
483	1
483.4	1
483.8	6
484.2	169
484.6	1
485	1
485.4	1
485.8	99
486.2	1
486.6	199
487	1
487.4	162
487.8	1
488.2	1
488.6	1
489	1
489.4	1
489.8	1
490.2	93
490.6	1
491	1
491.4	2
491.8	1
492.2	11
492.6	13
493	42
493.4	10
493.8	33
494.2	16
494.6	105
495	83
495.4	164
495.8	195
496.2	311
496.6	395
497	572
497.4	614
497.8	700
498.2	855
498.6	904
499	1192
499.4	1193
499.8	1216
500.2	1302
500.6	1262
501	1314
501.4	1303
501.8	1196
502.2	1175
502.6	1207
503	1252
503.4	1266
503.8	1295
504.2	1369
504.6	1441
505	1236
505.4	1425
505.8	1576
506.2	1914
506.6	2452
507	3271
507.4	3696
507.8	2547
508.2	1888
508.6	1750
509	1747
509.4	2305
509.8	3099
510.2	3948
510.6	4556
511	4306
511.4	3555
511.8	2866
512.2	2670
512.6	2415
513	2489
513.4	2747
513.8	2654
514.2	2330
514.6	2482
515	2321
515.4	1973
515.8	2069
516.2	2652
516.6	2433
517	2114
517.4	1796
517.8	1700
518.2	1562
518.6	1637
519	1876
519.4	2467
519.8	3422
520.2	6557
520.6	16331
521	16819
521.4	12285
521.8	8414
522.2	3841
522.6	2484
523	2189
523.4	2508
523.8	4001
524.2	9446
524.6	9456
525	8396
525.4	6244
525.8	3667
526.2	2513
526.6	1961
527	1624
527.4	2022
527.8	2855
528.2	3761
528.6	2651
529	2735
529.4	2463
529.8	1818
530.2	1158
530.6	1366
531	1504
531.4	1356
531.8	757
532.2	772
532.6	375
533	214
533.4	125
533.8	205
534.2	337
534.6	185
535	220
535.4	498
535.8	364
536.2	119
536.6	40
537	93
537.4	1
537.8	1
538.2	23
538.6	227
539	725
539.4	563
539.8	29
540.2	1
540.6	23
541	1
541.4	1
541.8	1
542.2	97
542.6	1
543	1
543.4	71
543.8	1
544.2	1
544.6	18
545	1
545.4	1
545.8	1
546.2	8
546.6	1
547	1
547.4	1
547.8	1
548.2	1
548.6	1
549	1
549.4	1
549.8	1
550.2	1
550.6	1
551	8
551.4	1
551.8	1
552.2	1
552.6	20
553	1
553.4	1
553.8	1
554.2	27
554.6	1
555	48
555.4	1
555.8	5
556.2	1
556.6	92
557	1
557.4	1
557.8	278
558.2	250
558.6	355
559	83
559.4	204
559.8	356
560.2	207
560.6	535
561	401
561.4	417
561.8	503
562.2	784
562.6	580
563	1084
563.4	968
563.8	970
564.2	1117
564.6	1355
565	1210
565.4	1646
565.8	2702
566.2	5348
566.6	10282
567	8492
567.4	4772
567.8	3195
568.2	2577
568.6	2664
569	2925
569.4	2771
569.8	3019
570.2	3590
570.6	4888
571	6077
571.4	7567
571.8	11375
572.2	18253
572.6	17927
573	12395
573.4	9185
573.8	8799
574.2	8892
574.6	8236
575	7077
575.4	6351
575.8	5950
576.2	6212
576.6	6765
577	8103
577.4	10536
577.8	17097
578.2	23963
578.6	20540
579	20758
579.4	14684
579.8	10059
580.2	9271
580.6	8708
581	8300
581.4	9097
581.8	12484
582.2	17664
582.6	23046
583	16447
583.4	11034
583.8	9243
584.2	8824
584.6	9164
585	10189
585.4	8743
585.8	7056
586.2	6981
586.6	7692
587	9363
587.4	9278
587.8	8866
588.2	10356
588.6	14705
589	13645
589.4	8280
589.8	5478
590.2	3722
590.6	2854
591	2101
591.4	1835
591.8	1589
592.2	1428
592.6	1235
593	999
593.4	963
593.8	454
594.2	548
594.6	417
595	868
595.4	880
595.8	1084
596.2	1051
596.6	1408
597	1631
597.4	1796
597.8	920
598.2	510
598.6	576
599	379
599.4	227
599.8	250
600.2	359
600.6	714
601	636
601.4	541
601.8	90
602.2	65
602.6	1
603	187
603.4	1
603.8	1
604.2	1
604.6	1
605	1
605.4	1
605.8	1
606.2	1
606.6	1
607	1
607.4	13
607.8	1
608.2	1
608.6	1
609	1
609.4	1
609.8	1
610.2	6
610.6	1
611	46
611.4	1
611.8	1
612.2	1
612.6	1
613	1
613.4	1
613.8	52
614.2	1
614.6	1
615	1
615.4	1
615.8	1
616.2	1
616.6	1
617	1
617.4	1
617.8	1
618.2	1
618.6	1
619	12
619.4	1
619.8	99
620.2	1
620.6	136
621	36
621.4	1
621.8	77
622.2	1
622.6	141
623	1
623.4	130
623.8	1
624.2	1
624.6	85
625	374
625.4	187
625.8	461
626.2	952
626.6	795
627	302
627.4	136
627.8	71
628.2	196
628.6	1
629	1
629.4	18
629.8	28
630.2	12
630.6	1
631	1
631.4	171
631.8	104
632.2	1
632.6	1
633	1
633.4	1
633.8	1
634.2	1
634.6	1
635	1
635.4	1
635.8	139
636.2	69
636.6	48
637	1
637.4	1
637.8	1
638.2	1
638.6	1
639	1
639.4	1
639.8	1
640.2	191
640.6	1
641	1
641.4	1
641.8	1
642.2	1
642.6	1
643	1
643.4	1
643.8	1
644.2	1
644.6	1
645	1
645.4	1
645.8	1
646.2	1
646.6	50
647	147
647.4	1
647.8	1
648.2	1
648.6	1
649	1
649.4	1
649.8	1
650.2	135
650.6	68
651	1
651.4	1
651.8	1
652.2	68
652.6	54
653	1
653.4	1
653.8	1
654.2	1
654.6	1
655	1
655.4	45
655.8	1
656.2	1
656.6	46
657	1
657.4	1
657.8	1
658.2	1
658.6	1
659	1
659.4	1
659.8	1
660.2	1
660.6	1
661	1
661.4	1
661.8	1
662.2	1
662.6	100
663	1
663.4	1
663.8	105
664.2	37
664.6	1
665	1
665.4	144
665.8	96
666.2	255
666.6	1
667	1
667.4	205
667.8	1
668.2	85
668.6	213
669	249
669.4	57
669.8	122
670.2	252
670.6	296
671	298
671.4	1010
671.8	2432
672.2	2187
672.6	1125
673	339
673.4	343
673.8	311
674.2	129
674.6	211
675	222
675.4	284
675.8	49
676.2	498
676.6	987
677	780
677.4	1303
677.8	1503
678.2	833
678.6	462
679	738
679.4	734
679.8	560
680.2	1495
680.6	915
681	743
681.4	771
681.8	593
682.2	785
682.6	534
683	781
683.4	1205
683.8	1383
684.2	1205
684.6	827
685	822
685.4	498
685.8	377
686.2	331
686.6	394
687	1
687.4	152
687.8	71
688.2	1
688.6	1
689	1
689.4	173
689.8	1
690.2	1
690.6	1
691	1
691.4	1
691.8	1
692.2	1
692.6	1
693	49
693.4	1
693.8	1
694.2	34
694.6	31
695	314
695.4	468
695.8	1
696.2	159
696.6	420
697	226
697.4	1
697.8	20
698.2	39
698.6	1
699	1
699.4	90
699.8	1
700.2	1
700.6	1
701	1
701.4	226
701.8	1
702.2	1
702.6	369
703	16
703.4	1
703.8	85
704.2	1
704.6	63
705	1
705.4	1
705.8	1
706.2	1
706.6	7
707	1
707.4	1
707.8	1
708.2	1
708.6	173
709	60
709.4	1
709.8	49
710.2	113
710.6	1
711	406
711.4	1
711.8	1
712.2	1
712.6	1
713	1
713.4	1
713.8	1
714.2	99
714.6	1
715	48
715.4	1
715.8	1
716.2	1
716.6	199
717	273
717.4	314
717.8	1
718.2	195
718.6	39
719	100
719.4	63
719.8	1
720.2	166
720.6	428
721	589
721.4	492
721.8	604
722.2	307
722.6	611
723	333
723.4	548
723.8	738
724.2	631
724.6	821
725	741
725.4	1257
725.8	960
726.2	982
726.6	800
727	1049
727.4	1118
727.8	1507
728.2	1351
728.6	1888
729	1622
729.4	1939
729.8	2774
730.2	2882
730.6	3665
731	5009
731.4	7049
731.8	12942
732.2	25558
732.6	34141
733	32769
733.4	25009
733.8	15404
734.2	9560
734.6	6233
735	4998
735.4	4557
735.8	3650
736.2	3519
736.6	3294
737	3799
737.4	4181
737.8	4173
738.2	5030
738.6	6971
739	8293
739.4	8602
739.8	6889
740.2	7702
740.6	8137
741	8905
741.4	11467
741.8	14393
742.2	14806
742.6	11796
743	9505
743.4	8647
743.8	8259
744.2	9106
744.6	10442
745	12580
745.4	13884
745.8	14979
746.2	15397
746.6	16533
747	17151
747.4	19367
747.8	21366
748.2	20916
748.6	18232
749	17569
749.4	16229
749.8	13642
750.2	10332
750.6	8224
751	7245
751.4	6784
751.8	6666
752.2	6111
752.6	6301
753	5710
753.4	5187
753.8	4273
754.2	3747
754.6	2694
755	2472
755.4	1579
755.8	1876
756.2	1905
756.6	1746
757	1685
757.4	1521
757.8	1253
758.2	828
758.6	1308
759	1210
759.4	1270
759.8	1552
760.2	1448
760.6	2013
761	1789
761.4	2718
761.8	2941
762.2	2139
762.6	1912
763	1129
763.4	1126
763.8	811
764.2	59
764.6	996
765	685
765.4	445
765.8	7
766.2	59
766.6	458
767	665
767.4	274
767.8	300
768.2	1057
768.6	1032
769	754
769.4	953
769.8	934
770.2	623
770.6	368
771	221
771.4	656
771.8	671
772.2	419
772.6	599
773	347
773.4	1
773.8	252
774.2	1
774.6	1
775	74
775.4	85
775.8	501
776.2	293
776.6	762
777	425
777.4	1110
777.8	726
778.2	689
778.6	849
779	984
779.4	1413
779.8	1168
780.2	881
780.6	1146
781	1241
781.4	1535
781.8	1084
782.2	1383
782.6	1556
783	1454
783.4	2217
783.8	2764
784.2	3777
784.6	6052
785	7844
785.4	7631
785.8	6686
786.2	4761
786.6	3849
787	3068
787.4	2365
787.8	1795
788.2	2713
788.6	3013
789	3347
789.4	3999
789.8	3979
790.2	4308
790.6	4429
791	6558
791.4	9177
791.8	12781
792.2	11239
792.6	7859
793	6334
793.4	4684
793.8	4748
794.2	5427
794.6	5531
795	6310
795.4	7422
795.8	10566
796.2	17847
796.6	27897
797	29605
797.4	26406
797.8	19614
798.2	11321
798.6	8367
799	6503
799.4	6290
799.8	6569
800.2	7222
800.6	6443
801	8241
801.4	9367
801.8	9954
802.2	9644
802.6	9425
803	8712
803.4	9290
803.8	10083
804.2	11519
804.6	14462
805	18974
805.4	20806
805.8	21494
806.2	18625
806.6	16086
807	13477
807.4	12238
807.8	13836
808.2	15247
808.6	17701
809	15806
809.4	12489
809.8	9803
810.2	6597
810.6	6133
811	4415
811.4	4292
811.8	3582
812.2	3574
812.6	3250
813	3107
813.4	2720
813.8	2556
814.2	1833
814.6	1498
815	1248
815.4	1392
815.8	1048
816.2	371
816.6	823
817	94
817.4	395
817.8	923
818.2	351
818.6	573
819	382
819.4	241
819.8	576
820.2	24
820.6	630
821	469
821.4	1
821.8	1193
822.2	711
822.6	370
823	1
823.4	1
823.8	241
824.2	618
824.6	90
825	204
825.4	1278
825.8	1269
826.2	1433
826.6	1089
827	480
827.4	648
827.8	318
828.2	201
828.6	460
829	505
829.4	346
829.8	392
830	582