File: lasermedia/data/054-abs.txt
# Optical absorption spectrum of Program fragment delivered error ``Can't call method "sample_" on an undefined value at abs.template line 1.'':YLF (Nd:LiYF4)
# assuming unity concentration per meter.  This data was part of the NASA
# Laser Spectra Database found on the web until December of 2005 which
# was created by Pat Cross working at NASA Langley Research Center, Internal
# Operations Group, Aerospace Electronics Systems Division, Remote Sensing.
#
# The spectra was collected by MS on  5 January 1988 and was
# annotated on 28 January 1988.  The sample name was "" was a 4.1000
# long piece of :.
# The incident light had unknown polarization.
#
# Spectra were recorded from 325 to 830nm
# every 0.2nm at room temperature.
#
# FILE NAME ON PE-3600 = 001 NYLF4.SP ON PC = 001NYLF4.SP NO_POINTS = 2526. pts DATA_INTV = 0.000200 µm MIN_LAMBDA = 0.325000 µm MIN_DATA = 0. MAX_LAMBDA = 0.830000 µm MAX_DATA = 107808.0 SCANSPEED = .015 µm/min SLITWIDTH= 0.00010 µmITA = 0. RESP = 1.0 sec ISMS = 0. DATE=88/01/05 INST = 509. ? = 0. POLARIZED SPECTRA. PLASTIC POLARIZERS USED.EFFECTS OF PLASTIC NORMALIZED OUT.ONLY 95%POLARIZED AT 810NM. POL. GETS WORSE (90%) AT 820 AND WORSE BELOW 390NM. converted by Mark Storm. header added by hand. ND:YLF,AIRTRON,.162IN THICK,C-AXIS,PARAL. TO AWIND.
#
##Wavelength (nm)	Absorbance (/meter)
325	2626
325.4	2456
325.8	3159
326.2	3218
326.6	3762
327	3799
327.4	3691
327.8	3960
328.2	4097
328.6	4122
329	3480
329.4	3398
329.8	3782
330.2	4677
330.6	6176
331	5951
331.4	2916
331.8	2806
332.2	3351
332.6	2130
333	1762
333.4	1996
333.8	1158
334.2	1614
334.6	1209
335	1354
335.4	1075
335.8	1159
336.2	1198
336.6	1997
337	1332
337.4	1598
337.8	1586
338.2	1955
338.6	2125
339	1166
339.4	1554
339.8	1475
340.2	2329
340.6	1558
341	1800
341.4	1138
341.8	1782
342.2	1421
342.6	1674
343	2271
343.4	2133
343.8	2832
344.2	2280
344.6	1391
345	2059
345.4	1964
345.8	1980
346.2	2017
346.6	2213
347	3027
347.4	3661
347.8	5494
348.2	7949
348.6	11391
349	15765
349.4	17250
349.8	16431
350.2	15935
350.6	14401
351	12694
351.4	14577
351.8	14904
352.2	15336
352.6	15123
353	10012
353.4	6953
353.8	6847
354.2	6451
354.6	4281
355	3900
355.4	3871
355.8	5345
356.2	4961
356.6	7351
357	11352
357.4	23050
357.8	11915
358.2	4817
358.6	3302
359	1636
359.4	1648
359.8	1585
360.2	1197
360.6	1663
361	1277
361.4	1188
361.8	587
362.2	1433
362.6	1019
363	696
363.4	815
363.8	342
364.2	830
364.6	1544
365	1673
365.4	1012
365.8	276
366.2	1216
366.6	710
367	770
367.4	966
367.8	1180
368.2	1121
368.6	257
369	728
369.4	620
369.8	1165
370.2	564
370.6	812
371	866
371.4	124
371.8	765
372.2	16
372.6	1127
373	631
373.4	904
373.8	643
374.2	336
374.6	364
375	1489
375.4	994
375.8	25
376.2	845
376.6	1
377	1
377.4	1309
377.8	378
378.2	494
378.6	772
379	694
379.4	1057
379.8	945
380.2	1098
380.6	505
381	814
381.4	890
381.8	1043
382.2	1100
382.6	938
383	965
383.4	1018
383.8	1259
384.2	1154
384.6	1023
385	1193
385.4	929
385.8	924
386.2	605
386.6	863
387	876
387.4	1127
387.8	637
388.2	864
388.6	878
389	1277
389.4	918
389.8	1471
390.2	778
390.6	1118
391	1148
391.4	938
391.8	1123
392.2	1226
392.6	875
393	1130
393.4	1606
393.8	924
394.2	901
394.6	1356
395	1116
395.4	1033
395.8	1195
396.2	1180
396.6	840
397	1013
397.4	1156
397.8	879
398.2	1049
398.6	1228
399	912
399.4	1425
399.8	1532
400.2	891
400.6	1075
401	1043
401.4	1290
401.8	744
402.2	1134
402.6	1212
403	940
403.4	1281
403.8	1476
404.2	866
404.6	1216
405	969
405.4	1383
405.8	1016
406.2	1219
406.6	1171
407	1298
407.4	1212
407.8	1318
408.2	1090
408.6	1155
409	1077
409.4	1126
409.8	1332
410.2	988
410.6	1398
411	1511
411.4	1150
411.8	1450
412.2	1524
412.6	1196
413	1445
413.4	1012
413.8	821
414.2	1303
414.6	919
415	1392
415.4	1284
415.8	1552
416.2	1752
416.6	1482
417	1375
417.4	1045
417.8	1520
418.2	1642
418.6	1218
419	1286
419.4	1278
419.8	1382
420.2	1673
420.6	1238
421	1255
421.4	1298
421.8	1374
422.2	1173
422.6	1214
423	1161
423.4	1310
423.8	1422
424.2	1240
424.6	1206
425	978
425.4	1405
425.8	1404
426.2	1127
426.6	1385
427	1281
427.4	1359
427.8	1210
428.2	1167
428.6	1206
429	1361
429.4	1515
429.8	1458
430.2	2019
430.6	4360
431	4183
431.4	2296
431.8	3171
432.2	3095
432.6	2144
433	1470
433.4	1518
433.8	1731
434.2	1174
434.6	1375
435	1374
435.4	991
435.8	1174
436.2	1202
436.6	929
437	1060
437.4	1226
437.8	1053
438.2	1044
438.6	1044
439	1209
439.4	1114
439.8	1106
440.2	1043
440.6	1123
441	1119
441.4	1000
441.8	1274
442.2	1137
442.6	836
443	1060
443.4	1014
443.8	1136
444.2	873
444.6	907
445	1063
445.4	1003
445.8	1189
446.2	1049
446.6	1062
447	1161
447.4	1191
447.8	1297
448.2	1092
448.6	1136
449	1237
449.4	1270
449.8	1373
450.2	1151
450.6	1264
451	1587
451.4	1629
451.8	1462
452.2	1547
452.6	1603
453	1701
453.4	1928
453.8	2194
454.2	2376
454.6	2876
455	3371
455.4	2685
455.8	2214
456.2	1939
456.6	2006
457	1972
457.4	1755
457.8	1909
458.2	2064
458.6	2181
459	2075
459.4	2287
459.8	2406
460.2	2586
460.6	2713
461	2602
461.4	2464
461.8	2228
462.2	2425
462.6	2926
463	3310
463.4	3191
463.8	2819
464.2	2449
464.6	2144
465	2025
465.4	2271
465.8	2643
466.2	4134
466.6	4573
467	3255
467.4	2506
467.8	2017
468.2	1981
468.6	2300
469	3487
469.4	2965
469.8	2050
470.2	2049
470.6	1971
471	2042
471.4	2171
471.8	2644
472.2	2353
472.6	1738
473	1689
473.4	1640
473.8	1787
474.2	2332
474.6	4325
475	4654
475.4	2533
475.8	2122
476.2	2002
476.6	1790
477	2448
477.4	3330
477.8	6485
478.2	6571
478.6	4166
479	3082
479.4	2750
479.8	2625
480.2	2678
480.6	2032
481	1538
481.4	1470
481.8	1441
482.2	1159
482.6	1179
483	1121
483.4	1035
483.8	1089
484.2	1027
484.6	1067
485	1030
485.4	1044
485.8	1151
486.2	943
486.6	1239
487	1431
487.4	1332
487.8	953
488.2	929
488.6	845
489	1053
489.4	1098
489.8	975
490.2	1101
490.6	1000
491	1121
491.4	1133
491.8	1092
492.2	1121
492.6	1074
493	1060
493.4	1106
493.8	1180
494.2	1224
494.6	1176
495	1249
495.4	1305
495.8	1130
496.2	1332
496.6	1416
497	1541
497.4	1509
497.8	1580
498.2	1684
498.6	1657
499	1943
499.4	1921
499.8	2053
500.2	2193
500.6	2127
501	2410
501.4	2354
501.8	2472
502.2	2581
502.6	2627
503	2764
503.4	2871
503.8	3010
504.2	3018
504.6	3079
505	3202
505.4	3423
505.8	3397
506.2	3747
506.6	4127
507	4314
507.4	4076
507.8	4004
508.2	4763
508.6	5542
509	6254
509.4	7323
509.8	9009
510.2	11055
510.6	13316
511	12756
511.4	11666
511.8	10963
512.2	10063
512.6	8385
513	7264
513.4	6840
513.8	6552
514.2	5644
514.6	4744
515	3844
515.4	3320
515.8	2817
516.2	2794
516.6	2492
517	2505
517.4	2316
517.8	2385
518.2	2181
518.6	2537
519	2847
519.4	2922
519.8	3289
520.2	3882
520.6	4675
521	6525
521.4	14364
521.8	12933
522.2	5778
522.6	3821
523	3355
523.4	3059
523.8	3690
524.2	8102
524.6	5034
525	4031
525.4	4684
525.8	4994
526.2	4285
526.6	4025
527	4217
527.4	5479
527.8	7092
528.2	5445
528.6	5235
529	9121
529.4	18930
529.8	14904
530.2	8260
530.6	6626
531	6498
531.4	6355
531.8	4698
532.2	3259
532.6	2465
533	1978
533.4	1754
533.8	1794
534.2	1730
534.6	1785
535	1650
535.4	2017
535.8	3068
536.2	3463
536.6	2333
537	1702
537.4	1124
537.8	1034
538.2	896
538.6	1255
539	1230
539.4	947
539.8	1006
540.2	846
540.6	880
541	872
541.4	761
541.8	864
542.2	1004
542.6	822
543	879
543.4	986
543.8	879
544.2	847
544.6	870
545	1085
545.4	916
545.8	778
546.2	730
546.6	688
547	906
547.4	832
547.8	1042
548.2	885
548.6	672
549	854
549.4	758
549.8	635
550.2	906
550.6	848
551	818
551.4	942
551.8	1153
552.2	545
552.6	871
553	800
553.4	782
553.8	877
554.2	827
554.6	862
555	930
555.4	593
555.8	802
556.2	1195
556.6	756
557	846
557.4	791
557.8	1128
558.2	1119
558.6	1129
559	885
559.4	1233
559.8	999
560.2	1005
560.6	1379
561	1082
561.4	1345
561.8	1305
562.2	1233
562.6	1417
563	1535
563.4	1304
563.8	1714
564.2	1596
564.6	1812
565	1841
565.4	2179
565.8	3085
566.2	5278
566.6	9719
567	7954
567.4	4820
567.8	3431
568.2	3056
568.6	3142
569	3332
569.4	3795
569.8	4541
570.2	5915
570.6	8351
571	10399
571.4	8649
571.8	6552
572.2	5082
572.6	4250
573	4077
573.4	4032
573.8	3836
574.2	4065
574.6	4719
575	4000
575.4	3682
575.8	4161
576.2	4704
576.6	5215
577	6120
577.4	7827
577.8	11796
578.2	17105
578.6	15680
579	15280
579.4	18087
579.8	23040
580.2	22677
580.6	16613
581	12506
581.4	11147
581.8	10966
582.2	11405
582.6	11900
583	10730
583.4	11807
583.8	15616
584.2	19658
584.6	23462
585	27292
585.4	22085
585.8	14982
586.2	12759
586.6	13562
587	15863
587.4	14651
587.8	10470
588.2	8110
588.6	6454
589	5129
589.4	4171
589.8	3416
590.2	3244
590.6	2972
591	2208
591.4	2333
591.8	1956
592.2	1892
592.6	1749
593	1444
593.4	1510
593.8	1144
594.2	1436
594.6	1443
595	1528
595.4	1523
595.8	1454
596.2	1323
596.6	1330
597	1316
597.4	1065
597.8	1098
598.2	757
598.6	763
599	849
599.4	1034
599.8	855
600.2	1098
600.6	1497
601	1135
601.4	1188
601.8	1034
602.2	1179
602.6	820
603	904
603.4	1031
603.8	719
604.2	873
604.6	679
605	935
605.4	561
605.8	884
606.2	914
606.6	877
607	959
607.4	670
607.8	730
608.2	506
608.6	960
609	853
609.4	731
609.8	771
610.2	942
610.6	1027
611	1013
611.4	839
611.8	734
612.2	769
612.6	792
613	958
613.4	851
613.8	1088
614.2	807
614.6	478
615	868
615.4	718
615.8	695
616.2	691
616.6	937
617	982
617.4	760
617.8	384
618.2	498
618.6	929
619	977
619.4	1046
619.8	1118
620.2	955
620.6	980
621	661
621.4	804
621.8	1376
622.2	1141
622.6	1301
623	1306
623.4	904
623.8	938
624.2	816
624.6	1033
625	816
625.4	1006
625.8	1316
626.2	1595
626.6	1682
627	1751
627.4	1402
627.8	1766
628.2	1412
628.6	1161
629	1089
629.4	980
629.8	914
630.2	946
630.6	1078
631	996
631.4	1146
631.8	1289
632.2	1136
632.6	1226
633	965
633.4	720
633.8	714
634.2	799
634.6	714
635	780
635.4	778
635.8	948
636.2	713
636.6	799
637	694
637.4	745
637.8	938
638.2	795
638.6	584
639	712
639.4	581
639.8	607
640.2	905
640.6	752
641	912
641.4	805
641.8	622
642.2	766
642.6	712
643	769
643.4	781
643.8	646
644.2	644
644.6	638
645	731
645.4	859
645.8	720
646.2	846
646.6	823
647	793
647.4	861
647.8	1031
648.2	848
648.6	607
649	827
649.4	848
649.8	845
650.2	721
650.6	716
651	697
651.4	733
651.8	899
652.2	661
652.6	646
653	503
653.4	618
653.8	670
654.2	594
654.6	707
655	645
655.4	907
655.8	676
656.2	407
656.6	711
657	454
657.4	826
657.8	628
658.2	635
658.6	660
659	594
659.4	480
659.8	762
660.2	723
660.6	470
661	680
661.4	1050
661.8	857
662.2	818
662.6	729
663	749
663.4	811
663.8	432
664.2	770
664.6	748
665	804
665.4	698
665.8	657
666.2	686
666.6	725
667	825
667.4	777
667.8	1063
668.2	992
668.6	893
669	919
669.4	915
669.8	1355
670.2	1327
670.6	1546
671	2242
671.4	3591
671.8	3168
672.2	1752
672.6	1413
673	1155
673.4	1271
673.8	876
674.2	1376
674.6	1412
675	1408
675.4	1720
675.8	2133
676.2	2929
676.6	3761
677	4712
677.4	5800
677.8	6679
678.2	4061
678.6	2667
679	1852
679.4	2028
679.8	2086
680.2	2071
680.6	1841
681	1653
681.4	1669
681.8	1799
682.2	1892
682.6	2259
683	2712
683.4	3457
683.8	3792
684.2	3323
684.6	2232
685	1714
685.4	1329
685.8	1477
686.2	1218
686.6	1342
687	1394
687.4	1403
687.8	1546
688.2	1208
688.6	1184
689	1135
689.4	1072
689.8	814
690.2	908
690.6	680
691	568
691.4	642
691.8	1090
692.2	794
692.6	539
693	989
693.4	761
693.8	707
694.2	730
694.6	835
695	1107
695.4	963
695.8	1040
696.2	1141
696.6	1042
697	1055
697.4	1062
697.8	795
698.2	363
698.6	823
699	789
699.4	220
699.8	430
700.2	769
700.6	597
701	609
701.4	860
701.8	555
702.2	883
702.6	1213
703	863
703.4	479
703.8	790
704.2	353
704.6	893
705	779
705.4	742
705.8	547
706.2	676
706.6	827
707	757
707.4	828
707.8	882
708.2	668
708.6	983
709	834
709.4	884
709.8	710
710.2	828
710.6	746
711	1057
711.4	398
711.8	846
712.2	704
712.6	706
713	675
713.4	1083
713.8	561
714.2	1105
714.6	817
715	930
715.4	819
715.8	981
716.2	761
716.6	1099
717	867
717.4	1101
717.8	899
718.2	924
718.6	1187
719	1209
719.4	1111
719.8	917
720.2	1178
720.6	1088
721	1386
721.4	1295
721.8	1576
722.2	1890
722.6	1859
723	1851
723.4	2209
723.8	2378
724.2	2209
724.6	1990
725	1929
725.4	2540
725.8	2220
726.2	2587
726.6	2550
727	2661
727.4	2944
727.8	3511
728.2	3556
728.6	3948
729	3966
729.4	4958
729.8	5612
730.2	7281
730.6	9166
731	12774
731.4	22595
731.8	56487
732.2	67913
732.6	55010
733	69735
733.4	61270
733.8	37992
734.2	21543
734.6	13765
735	9578
735.4	7421
735.8	6597
736.2	6117
736.6	5466
737	5153
737.4	5537
737.8	5820
738.2	6520
738.6	8751
739	12934
739.4	19741
739.8	20628
740.2	17122
740.6	16044
741	17320
741.4	20674
741.8	24436
742.2	25917
742.6	23956
743	20483
743.4	19357
743.8	19432
744.2	21405
744.6	25868
745	32930
745.4	42941
745.8	58216
746.2	72715
746.6	78599
747	62595
747.4	40410
747.8	25568
748.2	18704
748.6	13867
749	10867
749.4	9061
749.8	8381
750.2	7298
750.6	6610
751	5696
751.4	5742
751.8	5384
752.2	3979
752.6	3991
753	3649
753.4	3619
753.8	3267
754.2	3510
754.6	2956
755	2873
755.4	2400
755.8	2693
756.2	2282
756.6	2444
757	1912
757.4	1831
757.8	2056
758.2	1845
758.6	1657
759	1664
759.4	1604
759.8	2133
760.2	2095
760.6	2180
761	1954
761.4	1994
761.8	2271
762.2	1823
762.6	1736
763	1057
763.4	1381
763.8	1242
764.2	888
764.6	1316
765	1556
765.4	1475
765.8	739
766.2	1153
766.6	1499
767	1694
767.4	2030
767.8	2158
768.2	2421
768.6	3275
769	3251
769.4	3190
769.8	2911
770.2	2307
770.6	1614
771	1782
771.4	1440
771.8	1576
772.2	1391
772.6	970
773	1162
773.4	992
773.8	1398
774.2	1483
774.6	1324
775	1381
775.4	1547
775.8	1823
776.2	1574
776.6	2240
777	2045
777.4	2339
777.8	1875
778.2	2761
778.6	2836
779	2516
779.4	3645
779.8	3710
780.2	4041
780.6	4461
781	4359
781.4	3868
781.8	2772
782.2	3132
782.6	3055
783	3548
783.4	3621
783.8	3520
784.2	3747
784.6	4493
785	4761
785.4	5457
785.8	5441
786.2	5884
786.6	6813
787	7354
787.4	8362
787.8	10246
788.2	12424
788.6	16897
789	24326
789.4	32549
789.8	33665
790.2	33438
790.6	39731
791	59623
791.4	93678
791.8	103145
792.2	98878
792.6	76530
793	51288
793.4	33218
793.8	25684
794.2	22600
794.6	21258
795	21661
795.4	25235
795.8	30770
796.2	49091
796.6	71908
797	74233
797.4	62855
797.8	52732
798.2	41464
798.6	28897
799	22162
799.4	18657
799.8	17003
800.2	16046
800.6	14872
801	15666
801.4	16086
801.8	16940
802.2	16841
802.6	15552
803	15885
803.4	15968
803.8	17911
804.2	21048
804.6	24178
805	26288
805.4	23216
805.8	17619
806.2	12714
806.6	10287
807	9401
807.4	8755
807.8	8982
808.2	9825
808.6	10837
809	10441
809.4	8224
809.8	5756
810.2	4201
810.6	4009
811	3290
811.4	3888
811.8	3807
812.2	2675
812.6	2803
813	3658
813.4	2834
813.8	2692
814.2	2053
814.6	2002
815	1403
815.4	1666
815.8	1546
816.2	1262
816.6	1211
817	989
817.4	1356
817.8	796
818.2	976
818.6	1060
819	728
819.4	713
819.8	1927
820.2	1483
820.6	1170
821	604
821.4	1000
821.8	1414
822.2	1190
822.6	2111
823	1376
823.4	1921
823.8	2114
824.2	1489
824.6	1057
825	1679
825.4	1297
825.8	3255
826.2	3124
826.6	1689
827	1502
827.4	1499
827.8	2215
828.2	752
828.6	992
829	789
829.4	110
829.8	1105
830	1541