File: lasermedia/data/056-abs.txt
# Optical absorption spectrum of Program fragment delivered error ``Can't call method "sample_" on an undefined value at abs.template line 1.'':YVO4 (Nd:YVO4)
# assuming unity concentration per meter.  This data was part of the NASA
# Laser Spectra Database found on the web until December of 2005 which
# was created by Pat Cross working at NASA Langley Research Center, Internal
# Operations Group, Aerospace Electronics Systems Division, Remote Sensing.
#
# The spectra was collected by MS on 11 March 1988 and was
# annotated on 18 March 1988.  The sample name was "" was a 1.6000
# long piece of :.
# The incident light had unknown polarization.
#
# Spectra were recorded from 325 to 830nm
# every 0.2nm at room temperature.
#
# FILE NAME ON PE-3600 = 001 NYVO3.SP ON PC = 001NYVO3.SP NO_POINTS = 2526. pts DATA_INTV = 0.000200 µm MIN_LAMBDA = 0.325000 µm MIN_DATA = 0. MAX_LAMBDA = 0.830000 µm MAX_DATA = .24619E6 SCANSPEED = .015 µm/min SLITWIDTH= 0.00020 µmITA = 0. RESP = 0.5 sec ISMS = 0. DATE=88/03/11 INST = 509. ? = 0. THIS IS DATA TAKEN FROM A ND DOPED ORTHO-VANIDATE CRYSTAL PROVIDED BY MILT BIRNBAUM. THE XTAL IS 1.60MM THICK AND HAS A BLUISH-VIOLETISH COLOR THAT IS NOT UNIFORM. IN ADDITION THE SURFACE POLISH WAS VERY POOR. THE SHORT WAVELENGTH DATA I BELIEVE SHOW A SLANTED BASELINE DUE TO SCATTERING LOSSES INTERNAL AND EXTERNAL.PLASTIC POLARIZERS WERE USED INSIDE P.E. longside is identified as 'C' axis.(ã polar or extraordinary ray) converted to AU by Mark Storm. header added by hand ND:YVO4,1%ND,1.60MMTHICK,LONGSIDE,BIRNBAUM,SAME AS1.
#
##Wavelength (nm)	Absorbance (/meter)
325	228488
325.4	223611
325.8	238771
326.2	233878
326.6	229152
327	241107
327.4	231134
327.8	222200
328.2	222736
328.6	231007
329	235076
329.4	231445
329.8	231075
330.2	225659
330.6	231120
331	223759
331.4	236052
331.8	240009
332.2	232594
332.6	226696
333	228567
333.4	229534
333.8	233894
334.2	237705
334.6	227906
335	228112
335.4	230988
335.8	227048
336.2	232807
336.6	224582
337	226928
337.4	238089
337.8	230145
338.2	243350
338.6	235172
339	229066
339.4	238189
339.8	234818
340.2	230074
340.6	228397
341	233450
341.4	231096
341.8	232489
342.2	232508
342.6	232726
343	231954
343.4	226338
343.8	236262
344.2	226736
344.6	230861
345	231656
345.4	219793
345.8	229580
346.2	228106
346.6	233512
347	228884
347.4	229653
347.8	230431
348.2	230449
348.6	222241
349	220442
349.4	220623
349.8	199169
350.2	194506
350.6	182718
351	170574
351.4	162246
351.8	146300
352.2	134716
352.6	119943
353	110867
353.4	103245
353.8	93620
354.2	87315
354.6	80062
355	76091
355.4	73398
355.8	76075
356.2	85555
356.6	103377
357	98859
357.4	74898
357.8	64563
358.2	61694
358.6	62351
359	58968
359.4	66498
359.8	76768
360.2	65127
360.6	51658
361	40253
361.4	40441
361.8	52987
362.2	87479
362.6	48172
363	32388
363.4	34393
363.8	43283
364.2	46066
364.6	25574
365	14864
365.4	13348
365.8	12867
366.2	9973
366.6	8383
367	9230
367.4	12438
367.8	13658
368.2	8305
368.6	5044
369	5227
369.4	3710
369.8	3488
370.2	3848
370.6	3892
371	4456
371.4	2770
371.8	2991
372.2	2906
372.6	3630
373	3101
373.4	1835
373.8	2995
374.2	2208
374.6	3488
375	2347
375.4	3058
375.8	2407
376.2	1614
376.6	1328
377	3298
377.4	671
377.8	4137
378.2	1553
378.6	1580
379	1396
379.4	2347
379.8	2889
380.2	2798
380.6	2546
381	2106
381.4	2337
381.8	2281
382.2	2425
382.6	1869
383	2104
383.4	2588
383.8	2332
384.2	2126
384.6	2327
385	2539
385.4	2342
385.8	3131
386.2	2278
386.6	2144
387	2491
387.4	2337
387.8	2675
388.2	2070
388.6	2004
389	2369
389.4	1757
389.8	1687
390.2	2248
390.6	2245
391	2460
391.4	1684
391.8	2129
392.2	2116
392.6	1958
393	1853
393.4	1821
393.8	1967
394.2	1930
394.6	1676
395	2192
395.4	2314
395.8	1891
396.2	1815
396.6	2337
397	2227
397.4	2040
397.8	1661
398.2	1514
398.6	1654
399	1564
399.4	2624
399.8	1594
400.2	1471
400.6	1605
401	1549
401.4	1803
401.8	1693
402.2	1223
402.6	1275
403	1809
403.4	1719
403.8	1968
404.2	1935
404.6	1188
405	1606
405.4	1487
405.8	1440
406.2	2296
406.6	2210
407	2008
407.4	1793
407.8	855
408.2	1569
408.6	1200
409	2123
409.4	1579
409.8	2056
410.2	1545
410.6	1522
411	1850
411.4	1950
411.8	1265
412.2	1497
412.6	1672
413	1677
413.4	1297
413.8	1202
414.2	1752
414.6	1808
415	1632
415.4	1745
415.8	1210
416.2	1365
416.6	1416
417	1293
417.4	1952
417.8	1419
418.2	1869
418.6	1219
419	1431
419.4	1274
419.8	1562
420.2	981
420.6	1361
421	1097
421.4	1586
421.8	1680
422.2	1864
422.6	1319
423	1843
423.4	2756
423.8	3419
424.2	1437
424.6	2110
425	1794
425.4	2121
425.8	1839
426.2	1677
426.6	2260
427	1740
427.4	1767
427.8	1723
428.2	1599
428.6	1277
429	1799
429.4	1764
429.8	1858
430.2	1999
430.6	1618
431	1522
431.4	1421
431.8	1307
432.2	1762
432.6	1633
433	1712
433.4	1752
433.8	1623
434.2	1952
434.6	2098
435	2138
435.4	1937
435.8	2253
436.2	3269
436.6	5039
437	10790
437.4	19087
437.8	7784
438.2	3277
438.6	2444
439	1923
439.4	2111
439.8	1791
440.2	1596
440.6	1344
441	1323
441.4	1410
441.8	1554
442.2	2361
442.6	2230
443	1688
443.4	1230
443.8	971
444.2	653
444.6	841
445	663
445.4	1069
445.8	983
446.2	1190
446.6	1085
447	1251
447.4	1403
447.8	1227
448.2	987
448.6	1142
449	958
449.4	1212
449.8	767
450.2	663
450.6	1045
451	1029
451.4	915
451.8	1168
452.2	1049
452.6	1130
453	1020
453.4	892
453.8	1070
454.2	1160
454.6	948
455	1364
455.4	1147
455.8	1195
456.2	1043
456.6	1404
457	1415
457.4	835
457.8	1311
458.2	1191
458.6	1379
459	1535
459.4	1846
459.8	1876
460.2	2132
460.6	1992
461	2305
461.4	2796
461.8	2873
462.2	3576
462.6	4028
463	3995
463.4	3392
463.8	3153
464.2	2833
464.6	2687
465	2874
465.4	3479
465.8	3954
466.2	4223
466.6	4704
467	5302
467.4	5581
467.8	5294
468.2	5255
468.6	4640
469	4817
469.4	5139
469.8	5387
470.2	5721
470.6	6566
471	7120
471.4	8859
471.8	8991
472.2	6226
472.6	5016
473	4281
473.4	4575
473.8	4215
474.2	4748
474.6	4940
475	6154
475.4	9861
475.8	21525
476.2	30553
476.6	15049
477	7377
477.4	4133
477.8	3385
478.2	2860
478.6	2965
479	3329
479.4	2823
479.8	2554
480.2	2801
480.6	3725
481	4693
481.4	6396
481.8	10929
482.2	9824
482.6	8718
483	5641
483.4	4003
483.8	3416
484.2	3220
484.6	3163
485	4598
485.4	4344
485.8	2911
486.2	1954
486.6	1307
487	1511
487.4	1016
487.8	1146
488.2	1285
488.6	1457
489	967
489.4	1300
489.8	931
490.2	1028
490.6	913
491	1287
491.4	1292
491.8	1566
492.2	1149
492.6	1085
493	892
493.4	768
493.8	654
494.2	805
494.6	759
495	659
495.4	719
495.8	842
496.2	916
496.6	870
497	1105
497.4	1041
497.8	921
498.2	1064
498.6	1096
499	1105
499.4	949
499.8	1142
500.2	1004
500.6	1073
501	1142
501.4	1359
501.8	1368
502.2	1437
502.6	1470
503	1618
503.4	1967
503.8	1990
504.2	2360
504.6	2322
505	2850
505.4	2755
505.8	3272
506.2	4082
506.6	4265
507	5171
507.4	5565
507.8	5841
508.2	6902
508.6	8150
509	9676
509.4	10551
509.8	12187
510.2	13361
510.6	15147
511	16437
511.4	17508
511.8	18385
512.2	18535
512.6	17145
513	15017
513.4	13144
513.8	11781
514.2	10640
514.6	9672
515	8470
515.4	8284
515.8	8670
516.2	9096
516.6	10440
517	14147
517.4	17493
517.8	14342
518.2	12105
518.6	12383
519	14178
519.4	16954
519.8	21187
520.2	27179
520.6	26003
521	20807
521.4	16832
521.8	15701
522.2	16042
522.6	16773
523	16074
523.4	12349
523.8	9965
524.2	9275
524.6	9804
525	10040
525.4	8569
525.8	7345
526.2	6318
526.6	5815
527	5258
527.4	5223
527.8	5275
528.2	5035
528.6	6127
529	6680
529.4	8144
529.8	10869
530.2	22438
530.6	21114
531	7939
531.4	4913
531.8	4635
532.2	5341
532.6	8555
533	8533
533.4	10694
533.8	9659
534.2	5492
534.6	3828
535	3531
535.4	3984
535.8	5217
536.2	4685
536.6	3660
537	3292
537.4	3719
537.8	3842
538.2	4800
538.6	5478
539	5266
539.4	5983
539.8	7332
540.2	10792
540.6	18899
541	29796
541.4	25652
541.8	15523
542.2	8584
542.6	6055
543	6696
543.4	9813
543.8	8629
544.2	5443
544.6	3250
545	2132
545.4	1350
545.8	1404
546.2	1205
546.6	870
547	728
547.4	1073
547.8	981
548.2	911
548.6	814
549	613
549.4	598
549.8	1080
550.2	1147
550.6	772
551	966
551.4	1088
551.8	1064
552.2	1150
552.6	1080
553	1569
553.4	1356
553.8	1231
554.2	1033
554.6	1064
555	1296
555.4	1230
555.8	1481
556.2	1457
556.6	1479
557	1129
557.4	1265
557.8	1300
558.2	1386
558.6	1481
559	1608
559.4	1758
559.8	1993
560.2	2265
560.6	1620
561	1970
561.4	1751
561.8	1276
562.2	1859
562.6	1774
563	2068
563.4	2044
563.8	2088
564.2	1934
564.6	1808
565	2000
565.4	1593
565.8	1895
566.2	1991
566.6	2193
567	2085
567.4	2199
567.8	2197
568.2	2103
568.6	2064
569	2062
569.4	2442
569.8	2449
570.2	2634
570.6	2955
571	2645
571.4	2839
571.8	2763
572.2	3108
572.6	2698
573	3586
573.4	3305
573.8	3692
574.2	3567
574.6	3812
575	3724
575.4	4598
575.8	5002
576.2	5243
576.6	6000
577	6741
577.4	7119
577.8	7717
578.2	8182
578.6	8297
579	8901
579.4	10355
579.8	11396
580.2	12849
580.6	14727
581	17562
581.4	20981
581.8	27948
582.2	40457
582.6	54218
583	68694
583.4	80159
583.8	61456
584.2	42344
584.6	32508
585	30054
585.4	32709
585.8	39498
586.2	53438
586.6	66141
587	61502
587.4	50801
587.8	42970
588.2	42468
588.6	49413
589	58560
589.4	56597
589.8	42153
590.2	33256
590.6	31703
591	36598
591.4	47692
591.8	66693
592.2	95550
592.6	130875
593	152351
593.4	155072
593.8	160717
594.2	176761
594.6	172953
595	153656
595.4	161314
595.8	170520
596.2	156221
596.6	128726
597	118269
597.4	140238
597.8	176558
598.2	195808
598.6	187209
599	151425
599.4	105227
599.8	70188
600.2	48762
600.6	39727
601	38025
601.4	43413
601.8	46364
602.2	37967
602.6	28687
603	23246
603.4	19528
603.8	17911
604.2	17463
604.6	17483
605	17132
605.4	16052
605.8	13422
606.2	10432
606.6	8096
607	6667
607.4	5504
607.8	4596
608.2	3461
608.6	2999
609	2609
609.4	2356
609.8	1957
610.2	1670
610.6	1704
611	1036
611.4	1339
611.8	1186
612.2	1098
612.6	1263
613	790
613.4	387
613.8	650
614.2	996
614.6	695
615	991
615.4	722
615.8	463
616.2	547
616.6	119
617	885
617.4	522
617.8	273
618.2	280
618.6	457
619	83
619.4	394
619.8	1
620.2	201
620.6	765
621	286
621.4	351
621.8	830
622.2	56
622.6	744
623	562
623.4	821
623.8	494
624.2	771
624.6	114
625	974
625.4	890
625.8	1675
626.2	3501
626.6	2969
627	1403
627.4	951
627.8	669
628.2	509
628.6	1
629	774
629.4	81
629.8	455
630.2	488
630.6	320
631	304
631.4	226
631.8	721
632.2	346
632.6	483
633	872
633.4	491
633.8	723
634.2	370
634.6	758
635	446
635.4	403
635.8	625
636.2	148
636.6	288
637	281
637.4	840
637.8	640
638.2	153
638.6	450
639	727
639.4	535
639.8	340
640.2	329
640.6	933
641	342
641.4	883
641.8	386
642.2	348
642.6	560
643	1
643.4	237
643.8	476
644.2	76
644.6	637
645	594
645.4	198
645.8	383
646.2	448
646.6	257
647	232
647.4	346
647.8	693
648.2	484
648.6	1026
649	636
649.4	159
649.8	752
650.2	43
650.6	151
651	359
651.4	204
651.8	888
652.2	1
652.6	344
653	189
653.4	294
653.8	439
654.2	137
654.6	72
655	669
655.4	23
655.8	127
656.2	540
656.6	501
657	1
657.4	335
657.8	265
658.2	338
658.6	91
659	128
659.4	442
659.8	194
660.2	558
660.6	305
661	306
661.4	268
661.8	319
662.2	107
662.6	95
663	1
663.4	1
663.8	332
664.2	365
664.6	33
665	217
665.4	1
665.8	511
666.2	209
666.6	51
667	284
667.4	1
667.8	377
668.2	791
668.6	162
669	212
669.4	334
669.8	461
670.2	508
670.6	384
671	458
671.4	406
671.8	1
672.2	213
672.6	379
673	359
673.4	169
673.8	456
674.2	235
674.6	737
675	497
675.4	516
675.8	174
676.2	852
676.6	410
677	1058
677.4	520
677.8	643
678.2	1112
678.6	373
679	554
679.4	793
679.8	894
680.2	1044
680.6	1294
681	1156
681.4	1230
681.8	1909
682.2	2684
682.6	3670
683	4682
683.4	5603
683.8	6662
684.2	8802
684.6	9984
685	9529
685.4	6580
685.8	4298
686.2	3511
686.6	2943
687	3397
687.4	3883
687.8	4192
688.2	4412
688.6	5406
689	5138
689.4	4741
689.8	4594
690.2	4706
690.6	4122
691	4838
691.4	4768
691.8	3570
692.2	3039
692.6	2287
693	1866
693.4	2853
693.8	3283
694.2	3786
694.6	4337
695	4210
695.4	1866
695.8	2170
696.2	1806
696.6	1407
697	1427
697.4	1492
697.8	901
698.2	433
698.6	832
699	632
699.4	629
699.8	882
700.2	601
700.6	419
701	1175
701.4	485
701.8	1
702.2	635
702.6	333
703	237
703.4	1017
703.8	1384
704.2	898
704.6	1071
705	1099
705.4	642
705.8	899
706.2	668
706.6	902
707	832
707.4	587
707.8	673
708.2	1
708.6	533
709	620
709.4	483
709.8	457
710.2	534
710.6	104
711	631
711.4	360
711.8	451
712.2	336
712.6	677
713	683
713.4	21
713.8	431
714.2	401
714.6	171
715	124
715.4	709
715.8	43
716.2	873
716.6	696
717	1
717.4	479
717.8	467
718.2	495
718.6	128
719	973
719.4	763
719.8	349
720.2	973
720.6	325
721	305
721.4	297
721.8	695
722.2	460
722.6	159
723	664
723.4	166
723.8	145
724.2	187
724.6	1050
725	447
725.4	1
725.8	152
726.2	589
726.6	689
727	1063
727.4	1195
727.8	917
728.2	1238
728.6	852
729	1435
729.4	627
729.8	548
730.2	1738
730.6	608
731	1256
731.4	1570
731.8	1771
732.2	1827
732.6	2129
733	1684
733.4	2150
733.8	1605
734.2	2222
734.6	2113
735	2032
735.4	2639
735.8	3500
736.2	2813
736.6	3050
737	3256
737.4	3057
737.8	3026
738.2	3610
738.6	4063
739	4685
739.4	4978
739.8	5634
740.2	5732
740.6	7333
741	9991
741.4	13256
741.8	20455
742.2	38031
742.6	83461
743	119331
743.4	77826
743.8	42054
744.2	24864
744.6	17928
745	15334
745.4	14879
745.8	17043
746.2	18003
746.6	21428
747	24905
747.4	31103
747.8	38546
748.2	49073
748.6	60379
749	66359
749.4	65333
749.8	63783
750.2	63539
750.6	60909
751	53260
751.4	49267
751.8	55006
752.2	62612
752.6	62050
753	48749
753.4	37668
753.8	29330
754.2	25649
754.6	23458
755	25465
755.4	30974
755.8	38840
756.2	48817
756.6	55620
757	56205
757.4	51330
757.8	47240
758.2	44598
758.6	45828
759	48201
759.4	45923
759.8	40392
760.2	34149
760.6	28907
761	26547
761.4	26231
761.8	29015
762.2	29858
762.6	26653
763	20579
763.4	16574
763.8	13937
764.2	12341
764.6	9724
765	8342
765.4	8021
765.8	6367
766.2	6510
766.6	6096
767	5796
767.4	4755
767.8	4281
768.2	4595
768.6	4492
769	3997
769.4	3871
769.8	4056
770.2	4321
770.6	3104
771	3017
771.4	3297
771.8	3840
772.2	4020
772.6	3608
773	4423
773.4	6081
773.8	7774
774.2	10414
774.6	12445
775	12301
775.4	10142
775.8	8311
776.2	7005
776.6	4471
777	3967
777.4	3308
777.8	3570
778.2	2437
778.6	2300
779	2361
779.4	2065
779.8	2326
780.2	991
780.6	1927
781	1181
781.4	2038
781.8	1703
782.2	1668
782.6	1424
783	1629
783.4	1730
783.8	848
784.2	1773
784.6	1805
785	1462
785.4	955
785.8	2251
786.2	2316
786.6	1566
787	1296
787.4	2360
787.8	1664
788.2	2688
788.6	3100
789	3032
789.4	2411
789.8	3517
790.2	3165
790.6	3856
791	2824
791.4	2862
791.8	3132
792.2	3547
792.6	3497
793	4097
793.4	3671
793.8	4881
794.2	4459
794.6	5165
795	5286
795.4	5465
795.8	6500
796.2	7230
796.6	8638
797	10792
797.4	11829
797.8	14093
798.2	16344
798.6	16563
799	18591
799.4	21385
799.8	21119
800.2	21411
800.6	26557
801	33145
801.4	39673
801.8	37387
802.2	32211
802.6	31631
803	35369
803.4	41543
803.8	50783
804.2	63233
804.6	74994
805	88759
805.4	98513
805.8	94950
806.2	80439
806.6	78754
807	91466
807.4	124405
807.8	181096
808.2	221301
808.6	227870
809	217184
809.4	164739
809.8	113161
810.2	86514
810.6	71424
811	64289
811.4	61281
811.8	64377
812.2	73394
812.6	83046
813	83047
813.4	71791
813.8	54892
814.2	42597
814.6	31696
815	26100
815.4	21709
815.8	18845
816.2	17853
816.6	16445
817	14271
817.4	13830
817.8	15165
818.2	15622
818.6	18875
819	22023
819.4	19014
819.8	16635
820.2	13831
820.6	13099
821	13416
821.4	12318
821.8	12330
822.2	10731
822.6	9376
823	7476
823.4	5516
823.8	5464
824.2	4525
824.6	3689
825	3577
825.4	3327
825.8	3170
826.2	3199
826.6	2471
827	3196
827.4	2198
827.8	2685
828.2	2314
828.6	3683
829	1793
829.4	1694
829.8	2122
830	1777